%ArduinoTime [ms]	Reference Position [rad]	Measured Position [rad]	Actual Current [A]	Proportional Gain [Kp]	Derivative Gain [Kd]	Integral Gain [Ki]	%11/4/20212:08 PM
0.000	0.000	0.000	0.000	0.000	0.000	0.000
185575.000	0.000	0.020	-0.047	77.000	26.379	0.000
185605.000	0.000	0.020	-0.047	77.000	26.379	0.000
185605.000	0.000	0.020	-0.047	77.000	26.379	0.000
185605.000	0.000	0.020	-0.047	77.000	26.379	0.000
185635.000	0.000	0.020	-0.047	77.000	26.379	0.000
185635.000	0.000	0.020	-0.047	77.000	26.379	0.000
185635.000	0.000	0.020	-0.047	77.000	26.379	0.000
185665.000	0.000	0.020	-0.047	77.000	26.379	0.000
185665.000	0.000	0.020	-0.047	77.000	26.379	0.000
185665.000	0.000	0.020	-0.047	77.000	26.379	0.000
185695.000	0.000	0.020	-0.047	77.000	26.379	0.000
185695.000	0.000	0.020	-0.047	77.000	26.379	0.000
185695.000	0.000	0.020	-0.047	77.000	26.379	0.000
185725.000	0.000	0.020	-0.047	77.000	26.379	0.000
185725.000	0.000	0.020	-0.047	77.000	26.379	0.000
185725.000	0.000	0.020	-0.047	77.000	26.379	0.000
185755.000	0.000	0.020	-0.047	77.000	26.379	0.000
185755.000	0.000	0.020	-0.047	77.000	26.379	0.000
185755.000	0.000	0.020	-0.047	77.000	26.379	0.000
185785.000	0.000	0.020	-0.047	77.000	26.379	0.000
185785.000	0.000	0.020	-0.047	77.000	26.379	0.000
185785.000	0.000	0.020	-0.047	77.000	26.379	0.000
185815.000	0.000	0.020	-0.047	77.000	26.379	0.000
185815.000	0.000	0.020	-0.047	77.000	26.379	0.000
185815.000	0.000	0.020	-0.047	77.000	26.379	0.000
185845.000	0.000	0.020	-0.047	77.000	26.379	0.000
185845.000	0.000	0.020	-0.047	77.000	26.379	0.000
185845.000	0.000	0.020	-0.047	77.000	26.379	0.000
185875.000	0.000	0.020	-0.047	77.000	26.379	0.000
185875.000	0.000	0.020	-0.047	77.000	26.379	0.000
185875.000	0.000	0.020	-0.047	77.000	26.379	0.000
185905.000	0.000	0.020	-0.047	77.000	26.379	0.000
185905.000	0.000	0.020	-0.047	77.000	26.379	0.000
185905.000	0.000	0.020	-0.047	77.000	26.379	0.000
185935.000	0.000	0.020	-0.047	77.000	26.379	0.000
185935.000	0.000	0.020	-0.047	77.000	26.379	0.000
185935.000	0.000	0.020	-0.047	77.000	26.379	0.000
185965.000	0.000	0.020	-0.047	77.000	26.379	0.000
185965.000	0.000	0.020	-0.047	77.000	26.379	0.000
185965.000	0.000	0.020	-0.047	77.000	26.379	0.000
185995.000	0.000	0.020	-0.047	77.000	26.379	0.000
185995.000	0.000	0.020	-0.047	77.000	26.379	0.000
185995.000	0.000	0.020	-0.047	77.000	26.379	0.000
186025.000	0.000	0.020	-0.047	77.000	26.379	0.000
186025.000	0.000	0.020	-0.047	77.000	26.379	0.000
186025.000	0.000	0.020	-0.047	77.000	26.379	0.000
186055.000	0.000	0.020	-0.047	77.000	26.379	0.000
186055.000	0.000	0.020	-0.047	77.000	26.379	0.000
186055.000	0.000	0.020	-0.047	77.000	26.379	0.000
186085.000	0.000	0.020	-0.047	77.000	26.379	0.000
186085.000	0.000	0.020	-0.047	77.000	26.379	0.000
186085.000	0.000	0.020	-0.047	77.000	26.379	0.000
186115.000	0.000	0.020	-0.047	77.000	26.379	0.000
186115.000	0.000	0.020	-0.047	77.000	26.379	0.000
186115.000	0.000	0.020	-0.047	77.000	26.379	0.000
186145.000	0.000	0.020	-0.047	77.000	26.379	0.000
186145.000	0.000	0.020	-0.047	77.000	26.379	0.000
186145.000	0.000	0.020	-0.047	77.000	26.379	0.000
186175.000	0.000	0.020	-0.047	77.000	26.379	0.000
186175.000	0.000	0.020	-0.047	77.000	26.379	0.000
186175.000	0.000	0.020	-0.047	77.000	26.379	0.000
186205.000	0.000	0.020	-0.047	77.000	26.379	0.000
186205.000	0.000	0.020	-0.047	77.000	26.379	0.000
186205.000	0.000	0.020	-0.047	77.000	26.379	0.000
186235.000	0.000	0.020	-0.047	77.000	26.379	0.000
186235.000	0.000	0.020	-0.047	77.000	26.379	0.000
186235.000	0.000	0.020	-0.047	77.000	26.379	0.000
186265.000	0.000	0.020	-0.047	77.000	26.379	0.000
186265.000	0.000	0.020	-0.047	77.000	26.379	0.000
186265.000	0.000	0.020	-0.047	77.000	26.379	0.000
186295.000	0.000	0.020	-0.047	77.000	26.379	0.000
186295.000	0.000	0.020	-0.047	77.000	26.379	0.000
186295.000	0.000	0.020	-0.047	77.000	26.379	0.000
186325.000	0.000	0.020	-0.047	77.000	26.379	0.000
186325.000	0.000	0.020	-0.047	77.000	26.379	0.000
186325.000	0.000	0.020	-0.047	77.000	26.379	0.000
186355.000	0.000	0.020	-0.047	77.000	26.379	0.000
186355.000	0.000	0.020	-0.047	77.000	26.379	0.000
186355.000	0.000	0.020	-0.047	77.000	26.379	0.000
186385.000	0.000	0.020	-0.047	77.000	26.379	0.000
186385.000	0.000	0.020	-0.047	77.000	26.379	0.000
186385.000	0.000	0.020	-0.047	77.000	26.379	0.000
186415.000	0.000	0.020	-0.047	77.000	26.379	0.000
186415.000	0.000	0.020	-0.047	77.000	26.379	0.000
186415.000	0.000	0.020	-0.047	77.000	26.379	0.000
186445.000	0.000	0.020	-0.047	77.000	26.379	0.000
186445.000	0.000	0.020	-0.047	77.000	26.379	0.000
186445.000	0.000	0.020	-0.047	77.000	26.379	0.000
186475.000	0.000	0.020	-0.047	77.000	26.379	0.000
186475.000	0.000	0.020	-0.047	77.000	26.379	0.000
186475.000	0.000	0.020	-0.047	77.000	26.379	0.000
186505.000	0.000	0.020	-0.047	77.000	26.379	0.000
186505.000	0.000	0.020	-0.047	77.000	26.379	0.000
186505.000	0.000	0.020	-0.047	77.000	26.379	0.000
186535.000	0.000	0.020	-0.047	77.000	26.379	0.000
186535.000	0.000	0.020	-0.047	77.000	26.379	0.000
186535.000	0.000	0.020	-0.047	77.000	26.379	0.000
186565.000	0.000	0.020	-0.047	77.000	26.379	0.000
186565.000	0.000	0.020	-0.047	77.000	26.379	0.000
186565.000	0.000	0.020	-0.047	77.000	26.379	0.000
186595.000	0.000	0.020	-0.047	77.000	26.379	0.000
186595.000	0.000	0.020	-0.047	77.000	26.379	0.000
186595.000	0.000	0.020	-0.047	77.000	26.379	0.000
186625.000	0.000	0.020	-0.047	77.000	26.379	0.000
186625.000	0.000	0.020	-0.047	77.000	26.379	0.000
186625.000	0.000	0.020	-0.047	77.000	26.379	0.000
186655.000	0.000	0.020	-0.047	77.000	26.379	0.000
186655.000	0.000	0.020	-0.047	77.000	26.379	0.000
186655.000	0.000	0.020	-0.047	77.000	26.379	0.000
186685.000	0.000	0.020	-0.047	77.000	26.379	0.000
186685.000	0.000	0.020	-0.047	77.000	26.379	0.000
186685.000	0.000	0.020	-0.047	77.000	26.379	0.000
186715.000	0.000	0.020	-0.047	77.000	26.379	0.000
186715.000	0.000	0.020	-0.047	77.000	26.379	0.000
186715.000	0.000	0.020	-0.047	77.000	26.379	0.000
186745.000	0.000	0.020	-0.047	77.000	26.379	0.000
186745.000	0.000	0.020	-0.047	77.000	26.379	0.000
186745.000	0.000	0.020	-0.047	77.000	26.379	0.000
186775.000	0.000	0.020	-0.047	77.000	26.379	0.000
186775.000	0.000	0.020	-0.047	77.000	26.379	0.000
186775.000	0.000	0.020	-0.047	77.000	26.379	0.000
186805.000	0.000	0.020	-0.047	77.000	26.379	0.000
186805.000	0.000	0.020	-0.047	77.000	26.379	0.000
186805.000	0.000	0.020	-0.047	77.000	26.379	0.000
186835.000	0.000	0.020	-0.047	77.000	26.379	0.000
186835.000	0.000	0.020	-0.047	77.000	26.379	0.000
186835.000	0.000	0.020	-0.047	77.000	26.379	0.000
186865.000	0.000	0.020	-0.047	77.000	26.379	0.000
186865.000	0.000	0.020	-0.047	77.000	26.379	0.000
186865.000	0.000	0.020	-0.047	77.000	26.379	0.000
186895.000	0.000	0.020	-0.047	77.000	26.379	0.000
186895.000	0.000	0.020	-0.047	77.000	26.379	0.000
186895.000	0.000	0.020	-0.047	77.000	26.379	0.000
186925.000	0.000	0.020	-0.047	77.000	26.379	0.000
186925.000	0.000	0.020	-0.047	77.000	26.379	0.000
186925.000	0.000	0.020	-0.047	77.000	26.379	0.000
186955.000	0.000	0.020	-0.047	77.000	26.379	0.000
186955.000	0.000	0.020	-0.047	77.000	26.379	0.000
186955.000	0.000	0.020	-0.047	77.000	26.379	0.000
186985.000	0.000	0.020	-0.047	77.000	26.379	0.000
186985.000	0.000	0.020	-0.047	77.000	26.379	0.000
186985.000	0.000	0.020	-0.047	77.000	26.379	0.000
187015.000	0.000	0.020	-0.047	77.000	26.379	0.000
187015.000	0.000	0.020	-0.047	77.000	26.379	0.000
187015.000	0.000	0.020	-0.047	77.000	26.379	0.000
187045.000	0.000	0.020	-0.047	77.000	26.379	0.000
187045.000	0.000	0.020	-0.047	77.000	26.379	0.000
187045.000	0.000	0.020	-0.047	77.000	26.379	0.000
187075.000	0.000	0.020	-0.047	77.000	26.379	0.000
187075.000	0.000	0.020	-0.047	77.000	26.379	0.000
187075.000	0.000	0.020	-0.047	77.000	26.379	0.000
187105.000	0.000	0.020	-0.047	77.000	26.379	0.000
187105.000	0.000	0.020	-0.047	77.000	26.379	0.000
187105.000	0.000	0.020	-0.047	77.000	26.379	0.000
187135.000	0.000	0.020	-0.047	77.000	26.379	0.000
187135.000	0.000	0.020	-0.047	77.000	26.379	0.000
187135.000	0.000	0.020	-0.047	77.000	26.379	0.000
187165.000	0.000	0.020	-0.047	77.000	26.379	0.000
187165.000	0.000	0.020	-0.047	77.000	26.379	0.000
187165.000	0.000	0.020	-0.047	77.000	26.379	0.000
187195.000	0.000	0.020	-0.047	77.000	26.379	0.000
187195.000	0.000	0.020	-0.047	77.000	26.379	0.000
187195.000	0.000	0.020	-0.047	77.000	26.379	0.000
187225.000	0.000	0.020	-0.047	77.000	26.379	0.000
187225.000	0.000	0.020	-0.047	77.000	26.379	0.000
187225.000	0.000	0.020	-0.047	77.000	26.379	0.000
187255.000	0.000	0.020	-0.047	77.000	26.379	0.000
187255.000	0.000	0.020	-0.047	77.000	26.379	0.000
187255.000	0.000	0.020	-0.047	77.000	26.379	0.000
187285.000	0.000	0.020	-0.047	77.000	26.379	0.000
187285.000	0.000	0.020	-0.047	77.000	26.379	0.000
187285.000	0.000	0.020	-0.047	77.000	26.379	0.000
187315.000	0.000	0.020	-0.047	77.000	26.379	0.000
187315.000	0.000	0.020	-0.047	77.000	26.379	0.000
187315.000	0.000	0.020	-0.047	77.000	26.379	0.000
187345.000	0.000	0.020	-0.047	77.000	26.379	0.000
187345.000	0.000	0.020	-0.047	77.000	26.379	0.000
187345.000	0.000	0.020	-0.047	77.000	26.379	0.000
187375.000	0.000	0.020	-0.047	77.000	26.379	0.000
187375.000	0.000	0.020	-0.047	77.000	26.379	0.000
187375.000	0.000	0.020	-0.047	77.000	26.379	0.000
187405.000	0.000	0.020	-0.047	77.000	26.379	0.000
187405.000	0.000	0.020	-0.047	77.000	26.379	0.000
187405.000	0.000	0.020	-0.047	77.000	26.379	0.000
187435.000	0.000	0.020	-0.047	77.000	26.379	0.000
187435.000	0.000	0.020	-0.047	77.000	26.379	0.000
187435.000	0.000	0.020	-0.047	77.000	26.379	0.000
187465.000	0.000	0.020	-0.047	77.000	26.379	0.000
187465.000	0.000	0.020	-0.047	77.000	26.379	0.000
187465.000	0.000	0.020	-0.047	77.000	26.379	0.000
187495.000	0.000	0.020	-0.047	77.000	26.379	0.000
187495.000	0.000	0.020	-0.047	77.000	26.379	0.000
187495.000	0.000	0.020	-0.047	77.000	26.379	0.000
187525.000	0.000	0.020	-0.047	77.000	26.379	0.000
187525.000	0.000	0.020	-0.047	77.000	26.379	0.000
187525.000	0.000	0.020	-0.047	77.000	26.379	0.000
187555.000	0.000	0.020	-0.047	77.000	26.379	0.000
187555.000	0.000	0.020	-0.047	77.000	26.379	0.000
187555.000	0.000	0.020	-0.047	77.000	26.379	0.000
187585.000	0.000	0.020	-0.047	77.000	26.379	0.000
187585.000	0.000	0.020	-0.047	77.000	26.379	0.000
187585.000	0.000	0.020	-0.047	77.000	26.379	0.000
187615.000	0.000	0.020	-0.047	77.000	26.379	0.000
187615.000	0.000	0.020	-0.047	77.000	26.379	0.000
187615.000	0.000	0.020	-0.047	77.000	26.379	0.000
187645.000	0.000	0.020	-0.047	77.000	26.379	0.000
187645.000	0.000	0.020	-0.047	77.000	26.379	0.000
187645.000	0.000	0.020	-0.047	77.000	26.379	0.000
187675.000	0.000	0.020	-0.047	77.000	26.379	0.000
187675.000	0.000	0.020	-0.047	77.000	26.379	0.000
187675.000	0.000	0.020	-0.047	77.000	26.379	0.000
187705.000	0.000	0.020	-0.047	77.000	26.379	0.000
187705.000	0.000	0.020	-0.047	77.000	26.379	0.000
187705.000	0.000	0.020	-0.047	77.000	26.379	0.000
187735.000	0.000	0.020	-0.047	77.000	26.379	0.000
187735.000	0.000	0.020	-0.047	77.000	26.379	0.000
187735.000	0.000	0.020	-0.047	77.000	26.379	0.000
187765.000	0.000	0.020	-0.047	77.000	26.379	0.000
187765.000	0.000	0.020	-0.047	77.000	26.379	0.000
187765.000	0.000	0.020	-0.047	77.000	26.379	0.000
187795.000	0.000	0.020	-0.047	77.000	26.379	0.000
187795.000	0.000	0.020	-0.047	77.000	26.379	0.000
187795.000	0.000	0.020	-0.047	77.000	26.379	0.000
187825.000	0.000	0.020	-0.047	77.000	26.379	0.000
187825.000	0.000	0.020	-0.047	77.000	26.379	0.000
187825.000	0.000	0.020	-0.047	77.000	26.379	0.000
187855.000	0.000	0.020	-0.047	77.000	26.379	0.000
187855.000	0.000	0.020	-0.047	77.000	26.379	0.000
187855.000	0.000	0.020	-0.047	77.000	26.379	0.000
187885.000	0.000	0.020	-0.047	77.000	26.379	0.000
187885.000	0.000	0.020	-0.047	77.000	26.379	0.000
187885.000	0.000	0.020	-0.047	77.000	26.379	0.000
187915.000	0.000	0.020	-0.047	77.000	26.379	0.000
187915.000	0.000	0.020	-0.047	77.000	26.379	0.000
187915.000	0.000	0.020	-0.047	77.000	26.379	0.000
187945.000	0.000	0.020	-0.047	77.000	26.379	0.000
187945.000	0.000	0.020	-0.047	77.000	26.379	0.000
187945.000	0.000	0.020	-0.047	77.000	26.379	0.000
187975.000	0.000	0.020	-0.047	77.000	26.379	0.000
187975.000	0.000	0.020	-0.047	77.000	26.379	0.000
187975.000	0.000	0.020	-0.047	77.000	26.379	0.000
188005.000	0.000	0.020	-0.047	77.000	26.379	0.000
188005.000	0.000	0.020	-0.047	77.000	26.379	0.000
188005.000	0.000	0.020	-0.047	77.000	26.379	0.000
188035.000	0.000	0.020	-0.047	77.000	26.379	0.000
188035.000	0.000	0.020	-0.047	77.000	26.379	0.000
188035.000	0.000	0.020	-0.047	77.000	26.379	0.000
188065.000	0.000	0.020	-0.047	77.000	26.379	0.000
188065.000	0.000	0.020	-0.047	77.000	26.379	0.000
188065.000	0.000	0.020	-0.047	77.000	26.379	0.000
188095.000	0.000	0.020	-0.047	77.000	26.379	0.000
188095.000	0.000	0.020	-0.047	77.000	26.379	0.000
188095.000	0.000	0.020	-0.047	77.000	26.379	0.000
188125.000	0.000	0.020	-0.047	77.000	26.379	0.000
188125.000	0.000	0.020	-0.047	77.000	26.379	0.000
188125.000	0.000	0.020	-0.047	77.000	26.379	0.000
188155.000	0.000	0.020	-0.047	77.000	26.379	0.000
188155.000	0.000	0.020	-0.047	77.000	26.379	0.000
188155.000	0.000	0.020	-0.047	77.000	26.379	0.000
188185.000	0.000	0.020	-0.047	77.000	26.379	0.000
188185.000	0.000	0.020	-0.047	77.000	26.379	0.000
188185.000	0.000	0.020	-0.047	77.000	26.379	0.000
188215.000	0.000	0.020	-0.047	77.000	26.379	0.000
188215.000	0.000	0.020	-0.047	77.000	26.379	0.000
188215.000	0.000	0.020	-0.047	77.000	26.379	0.000
188245.000	0.000	0.020	-0.047	77.000	26.379	0.000
188245.000	0.000	0.020	-0.047	77.000	26.379	0.000
188245.000	0.000	0.020	-0.047	77.000	26.379	0.000
188275.000	0.000	0.020	-0.047	77.000	26.379	0.000
188275.000	0.000	0.020	-0.047	77.000	26.379	0.000
188275.000	0.000	0.020	-0.047	77.000	26.379	0.000
188305.000	0.000	0.020	-0.047	77.000	26.379	0.000
188305.000	0.000	0.020	-0.047	77.000	26.379	0.000
188305.000	0.000	0.020	-0.047	77.000	26.379	0.000
188335.000	0.000	0.020	-0.047	77.000	26.379	0.000
188335.000	0.000	0.020	-0.047	77.000	26.379	0.000
188335.000	0.000	0.020	-0.047	77.000	26.379	0.000
188365.000	0.000	0.020	-0.047	77.000	26.379	0.000
188365.000	0.000	0.020	-0.047	77.000	26.379	0.000
188365.000	0.000	0.020	-0.047	77.000	26.379	0.000
188395.000	0.000	0.020	-0.047	77.000	26.379	0.000
188395.000	0.000	0.020	-0.047	77.000	26.379	0.000
188395.000	0.000	0.020	-0.047	77.000	26.379	0.000
188425.000	0.000	0.020	-0.047	77.000	26.379	0.000
188425.000	0.000	0.020	-0.047	77.000	26.379	0.000
188425.000	0.000	0.020	-0.047	77.000	26.379	0.000
188455.000	0.000	0.020	-0.047	77.000	26.379	0.000
188455.000	0.000	0.020	-0.047	77.000	26.379	0.000
188455.000	0.000	0.020	-0.047	77.000	26.379	0.000
188485.000	0.000	0.020	-0.047	77.000	26.379	0.000
188485.000	0.000	0.020	-0.047	77.000	26.379	0.000
188485.000	0.000	0.020	-0.047	77.000	26.379	0.000
188515.000	0.000	0.020	-0.062	77.000	26.379	0.000
188515.000	0.000	0.020	-0.062	77.000	26.379	0.000
188515.000	0.000	0.020	-0.062	77.000	26.379	0.000
188545.000	0.000	0.020	-0.047	77.000	26.379	0.000
188545.000	0.000	0.020	-0.047	77.000	26.379	0.000
188545.000	0.000	0.020	-0.047	77.000	26.379	0.000
188575.000	0.000	0.020	-0.047	77.000	26.379	0.000
188575.000	0.000	0.020	-0.047	77.000	26.379	0.000
188575.000	0.000	0.020	-0.047	77.000	26.379	0.000
188605.000	0.000	0.020	-0.047	77.000	26.379	0.000
188605.000	0.000	0.020	-0.047	77.000	26.379	0.000
188605.000	0.000	0.020	-0.047	77.000	26.379	0.000
188635.000	0.000	0.020	-0.047	77.000	26.379	0.000
188635.000	0.000	0.020	-0.047	77.000	26.379	0.000
188635.000	0.000	0.020	-0.047	77.000	26.379	0.000
188665.000	0.000	0.020	-0.062	77.000	26.379	0.000
188665.000	0.000	0.020	-0.062	77.000	26.379	0.000
188665.000	0.000	0.020	-0.062	77.000	26.379	0.000
188695.000	0.000	0.020	-0.062	77.000	26.379	0.000
188695.000	0.000	0.020	-0.062	77.000	26.379	0.000
188695.000	0.000	0.020	-0.062	77.000	26.379	0.000
188725.000	0.000	0.020	-0.047	77.000	26.379	0.000
188725.000	0.000	0.020	-0.047	77.000	26.379	0.000
188725.000	0.000	0.020	-0.047	77.000	26.379	0.000
188755.000	0.000	0.020	-0.047	77.000	26.379	0.000
188755.000	0.000	0.020	-0.047	77.000	26.379	0.000
188755.000	0.000	0.020	-0.047	77.000	26.379	0.000
188785.000	0.000	0.020	-0.047	77.000	26.379	0.000
188785.000	0.000	0.020	-0.047	77.000	26.379	0.000
188785.000	0.000	0.020	-0.047	77.000	26.379	0.000
188815.000	0.000	0.020	-0.047	77.000	26.379	0.000
188815.000	0.000	0.020	-0.047	77.000	26.379	0.000
188815.000	0.000	0.020	-0.047	77.000	26.379	0.000
188845.000	0.000	0.020	-0.047	77.000	26.379	0.000
188845.000	0.000	0.020	-0.047	77.000	26.379	0.000
188845.000	0.000	0.020	-0.047	77.000	26.379	0.000
188875.000	0.000	0.020	-0.047	77.000	26.379	0.000
188875.000	0.000	0.020	-0.047	77.000	26.379	0.000
188875.000	0.000	0.020	-0.047	77.000	26.379	0.000
188905.000	0.000	0.020	-0.047	77.000	26.379	0.000
188905.000	0.000	0.020	-0.047	77.000	26.379	0.000
188905.000	0.000	0.020	-0.047	77.000	26.379	0.000
188935.000	0.000	0.020	-0.047	77.000	26.379	0.000
188935.000	0.000	0.020	-0.047	77.000	26.379	0.000
188935.000	0.000	0.020	-0.047	77.000	26.379	0.000
188965.000	0.000	0.020	-0.047	77.000	26.379	0.000
188965.000	0.000	0.020	-0.047	77.000	26.379	0.000
188965.000	0.000	0.020	-0.047	77.000	26.379	0.000
188995.000	0.000	0.020	-0.047	77.000	26.379	0.000
188995.000	0.000	0.020	-0.047	77.000	26.379	0.000
188995.000	0.000	0.020	-0.047	77.000	26.379	0.000
189025.000	0.000	0.020	-0.047	77.000	26.379	0.000
189025.000	0.000	0.020	-0.047	77.000	26.379	0.000
189025.000	0.000	0.020	-0.047	77.000	26.379	0.000
189055.000	0.000	0.020	-0.047	77.000	26.379	0.000
189055.000	0.000	0.020	-0.047	77.000	26.379	0.000
189055.000	0.000	0.020	-0.047	77.000	26.379	0.000
189085.000	0.000	0.020	-0.047	77.000	26.379	0.000
189085.000	0.000	0.020	-0.047	77.000	26.379	0.000
189085.000	0.000	0.020	-0.047	77.000	26.379	0.000
189115.000	0.000	0.020	-0.047	77.000	26.379	0.000
189115.000	0.000	0.020	-0.047	77.000	26.379	0.000
189115.000	0.000	0.020	-0.047	77.000	26.379	0.000
189145.000	0.000	0.020	-0.047	77.000	26.379	0.000
189145.000	0.000	0.020	-0.047	77.000	26.379	0.000
189145.000	0.000	0.020	-0.047	77.000	26.379	0.000
189175.000	0.000	0.020	-0.047	77.000	26.379	0.000
189175.000	0.000	0.020	-0.047	77.000	26.379	0.000
189175.000	0.000	0.020	-0.047	77.000	26.379	0.000
189205.000	0.000	0.020	-0.047	77.000	26.379	0.000
189205.000	0.000	0.020	-0.047	77.000	26.379	0.000
189205.000	0.000	0.020	-0.047	77.000	26.379	0.000
189235.000	0.000	0.020	-0.047	77.000	26.379	0.000
189235.000	0.000	0.020	-0.047	77.000	26.379	0.000
189235.000	0.000	0.020	-0.047	77.000	26.379	0.000
189265.000	0.000	0.020	-0.047	77.000	26.379	0.000
189265.000	0.000	0.020	-0.047	77.000	26.379	0.000
189265.000	0.000	0.020	-0.047	77.000	26.379	0.000
189295.000	0.000	0.020	-0.047	77.000	26.379	0.000
189295.000	0.000	0.020	-0.047	77.000	26.379	0.000
189295.000	0.000	0.020	-0.047	77.000	26.379	0.000
189325.000	0.000	0.020	-0.047	77.000	26.379	0.000
189325.000	0.000	0.020	-0.047	77.000	26.379	0.000
189325.000	0.000	0.020	-0.047	77.000	26.379	0.000
189355.000	0.000	0.020	-0.047	77.000	26.379	0.000
189355.000	0.000	0.020	-0.047	77.000	26.379	0.000
189355.000	0.000	0.020	-0.047	77.000	26.379	0.000
189385.000	0.000	0.020	-0.047	77.000	26.379	0.000
189385.000	0.000	0.020	-0.047	77.000	26.379	0.000
189385.000	0.000	0.020	-0.047	77.000	26.379	0.000
189415.000	0.000	0.020	-0.047	77.000	26.379	0.000
189415.000	0.000	0.020	-0.047	77.000	26.379	0.000
189415.000	0.000	0.020	-0.047	77.000	26.379	0.000
189445.000	0.000	0.020	-0.047	77.000	26.379	0.000
189445.000	0.000	0.020	-0.047	77.000	26.379	0.000
189445.000	0.000	0.020	-0.047	77.000	26.379	0.000
189475.000	0.000	0.020	-0.047	77.000	26.379	0.000
189475.000	0.000	0.020	-0.047	77.000	26.379	0.000
189475.000	0.000	0.020	-0.047	77.000	26.379	0.000
189505.000	0.000	0.020	-0.047	77.000	26.379	0.000
189505.000	0.000	0.020	-0.047	77.000	26.379	0.000
189505.000	0.000	0.020	-0.047	77.000	26.379	0.000
189535.000	0.000	0.020	-0.047	77.000	26.379	0.000
189535.000	0.000	0.020	-0.047	77.000	26.379	0.000
189535.000	0.000	0.020	-0.047	77.000	26.379	0.000
189565.000	0.000	0.020	-0.047	77.000	26.379	0.000
189565.000	0.000	0.020	-0.047	77.000	26.379	0.000
189565.000	0.000	0.020	-0.047	77.000	26.379	0.000
189595.000	0.000	0.020	-0.047	77.000	26.379	0.000
189595.000	0.000	0.020	-0.047	77.000	26.379	0.000
189595.000	0.000	0.020	-0.047	77.000	26.379	0.000
189625.000	0.000	0.020	-0.047	77.000	26.379	0.000
189625.000	0.000	0.020	-0.047	77.000	26.379	0.000
189625.000	0.000	0.020	-0.047	77.000	26.379	0.000
189655.000	0.000	0.020	-0.047	77.000	26.379	0.000
189655.000	0.000	0.020	-0.047	77.000	26.379	0.000
189655.000	0.000	0.020	-0.047	77.000	26.379	0.000
189685.000	0.000	0.020	-0.047	77.000	26.379	0.000
189685.000	0.000	0.020	-0.047	77.000	26.379	0.000
189685.000	0.000	0.020	-0.047	77.000	26.379	0.000
189715.000	0.000	0.020	-0.047	77.000	26.379	0.000
189715.000	0.000	0.020	-0.047	77.000	26.379	0.000
189715.000	0.000	0.020	-0.047	77.000	26.379	0.000
189745.000	0.000	0.020	-0.047	77.000	26.379	0.000
189745.000	0.000	0.020	-0.047	77.000	26.379	0.000
189745.000	0.000	0.020	-0.047	77.000	26.379	0.000
189775.000	0.000	0.020	-0.047	77.000	26.379	0.000
189775.000	0.000	0.020	-0.047	77.000	26.379	0.000
189775.000	0.000	0.020	-0.047	77.000	26.379	0.000
189805.000	0.000	0.020	-0.047	77.000	26.379	0.000
189805.000	0.000	0.020	-0.047	77.000	26.379	0.000
189805.000	0.000	0.020	-0.047	77.000	26.379	0.000
189835.000	0.500	0.020	0.844	77.000	26.379	0.000
189835.000	0.500	0.020	0.844	77.000	26.379	0.000
189835.000	0.500	0.020	0.844	77.000	26.379	0.000
189865.000	0.500	0.020	0.734	77.000	26.379	0.000
189865.000	0.500	0.020	0.734	77.000	26.379	0.000
189865.000	0.500	0.020	0.734	77.000	26.379	0.000
189895.000	0.500	0.030	0.609	77.000	26.379	0.000
189895.000	0.500	0.030	0.609	77.000	26.379	0.000
189895.000	0.500	0.030	0.609	77.000	26.379	0.000
189925.000	0.500	0.040	0.516	77.000	26.379	0.000
189925.000	0.500	0.040	0.516	77.000	26.379	0.000
189925.000	0.500	0.040	0.516	77.000	26.379	0.000
189955.000	0.500	0.060	0.422	77.000	26.379	0.000
189955.000	0.500	0.060	0.422	77.000	26.379	0.000
189955.000	0.500	0.060	0.422	77.000	26.379	0.000
189985.000	0.500	0.080	0.344	77.000	26.379	0.000
189985.000	0.500	0.080	0.344	77.000	26.379	0.000
189985.000	0.500	0.080	0.344	77.000	26.379	0.000
190015.000	0.500	0.100	0.281	77.000	26.379	0.000
190015.000	0.500	0.100	0.281	77.000	26.379	0.000
190015.000	0.500	0.100	0.281	77.000	26.379	0.000
190045.000	0.500	0.120	0.203	77.000	26.379	0.000
190045.000	0.500	0.120	0.203	77.000	26.379	0.000
190045.000	0.500	0.120	0.203	77.000	26.379	0.000
190075.000	0.500	0.140	0.156	77.000	26.379	0.000
190075.000	0.500	0.140	0.156	77.000	26.379	0.000
190075.000	0.500	0.140	0.156	77.000	26.379	0.000
190105.000	0.500	0.160	0.109	77.000	26.379	0.000
190105.000	0.500	0.160	0.109	77.000	26.379	0.000
190105.000	0.500	0.160	0.109	77.000	26.379	0.000
190135.000	0.500	0.190	0.062	77.000	26.379	0.000
190135.000	0.500	0.190	0.062	77.000	26.379	0.000
190135.000	0.500	0.190	0.062	77.000	26.379	0.000
190165.000	0.500	0.210	0.031	77.000	26.379	0.000
190165.000	0.500	0.210	0.031	77.000	26.379	0.000
190165.000	0.500	0.210	0.031	77.000	26.379	0.000
190195.000	0.500	0.230	0.000	77.000	26.379	0.000
190195.000	0.500	0.230	0.000	77.000	26.379	0.000
190195.000	0.500	0.230	0.000	77.000	26.379	0.000
190225.000	0.500	0.250	-0.047	77.000	26.379	0.000
190225.000	0.500	0.250	-0.047	77.000	26.379	0.000
190225.000	0.500	0.250	-0.047	77.000	26.379	0.000
190255.000	0.500	0.280	-0.062	77.000	26.379	0.000
190255.000	0.500	0.280	-0.062	77.000	26.379	0.000
190255.000	0.500	0.280	-0.062	77.000	26.379	0.000
190285.000	0.500	0.300	-0.062	77.000	26.379	0.000
190285.000	0.500	0.300	-0.062	77.000	26.379	0.000
190285.000	0.500	0.300	-0.062	77.000	26.379	0.000
190315.000	0.500	0.320	-0.078	77.000	26.379	0.000
190315.000	0.500	0.320	-0.078	77.000	26.379	0.000
190315.000	0.500	0.320	-0.078	77.000	26.379	0.000
190345.000	0.500	0.330	-0.094	77.000	26.379	0.000
190345.000	0.500	0.330	-0.094	77.000	26.379	0.000
190345.000	0.500	0.330	-0.094	77.000	26.379	0.000
190375.000	0.500	0.350	-0.094	77.000	26.379	0.000
190375.000	0.500	0.350	-0.094	77.000	26.379	0.000
190375.000	0.500	0.350	-0.094	77.000	26.379	0.000
190405.000	0.500	0.370	-0.094	77.000	26.379	0.000
190405.000	0.500	0.370	-0.094	77.000	26.379	0.000
190405.000	0.500	0.370	-0.094	77.000	26.379	0.000
190435.000	0.500	0.380	-0.094	77.000	26.379	0.000
190435.000	0.500	0.380	-0.094	77.000	26.379	0.000
190435.000	0.500	0.380	-0.094	77.000	26.379	0.000
190465.000	0.500	0.390	-0.094	77.000	26.379	0.000
190465.000	0.500	0.390	-0.094	77.000	26.379	0.000
190465.000	0.500	0.390	-0.094	77.000	26.379	0.000
190495.000	0.500	0.410	-0.078	77.000	26.379	0.000
190495.000	0.500	0.410	-0.078	77.000	26.379	0.000
190495.000	0.500	0.410	-0.078	77.000	26.379	0.000
190525.000	0.500	0.420	-0.078	77.000	26.379	0.000
190525.000	0.500	0.420	-0.078	77.000	26.379	0.000
190525.000	0.500	0.420	-0.078	77.000	26.379	0.000
190555.000	0.500	0.430	-0.078	77.000	26.379	0.000
190555.000	0.500	0.430	-0.078	77.000	26.379	0.000
190555.000	0.500	0.430	-0.078	77.000	26.379	0.000
190585.000	0.500	0.440	-0.078	77.000	26.379	0.000
190585.000	0.500	0.440	-0.078	77.000	26.379	0.000
190585.000	0.500	0.440	-0.078	77.000	26.379	0.000
190615.000	0.500	0.440	-0.062	77.000	26.379	0.000
190615.000	0.500	0.440	-0.062	77.000	26.379	0.000
190615.000	0.500	0.440	-0.062	77.000	26.379	0.000
190645.000	0.500	0.450	-0.062	77.000	26.379	0.000
190645.000	0.500	0.450	-0.062	77.000	26.379	0.000
190645.000	0.500	0.450	-0.062	77.000	26.379	0.000
190675.000	0.500	0.460	-0.062	77.000	26.379	0.000
190675.000	0.500	0.460	-0.062	77.000	26.379	0.000
190675.000	0.500	0.460	-0.062	77.000	26.379	0.000
190705.000	0.500	0.460	-0.047	77.000	26.379	0.000
190705.000	0.500	0.460	-0.047	77.000	26.379	0.000
190705.000	0.500	0.460	-0.047	77.000	26.379	0.000
190735.000	0.500	0.470	-0.047	77.000	26.379	0.000
190735.000	0.500	0.470	-0.047	77.000	26.379	0.000
190735.000	0.500	0.470	-0.047	77.000	26.379	0.000
190765.000	0.500	0.470	-0.031	77.000	26.379	0.000
190765.000	0.500	0.470	-0.031	77.000	26.379	0.000
190765.000	0.500	0.470	-0.031	77.000	26.379	0.000
190795.000	0.500	0.470	-0.016	77.000	26.379	0.000
190795.000	0.500	0.470	-0.016	77.000	26.379	0.000
190795.000	0.500	0.470	-0.016	77.000	26.379	0.000
190825.000	0.500	0.470	0.000	77.000	26.379	0.000
190825.000	0.500	0.470	0.000	77.000	26.379	0.000
190825.000	0.500	0.470	0.000	77.000	26.379	0.000
190855.000	0.500	0.480	0.000	77.000	26.379	0.000
190855.000	0.500	0.480	0.000	77.000	26.379	0.000
190855.000	0.500	0.480	0.000	77.000	26.379	0.000
190885.000	0.500	0.480	0.000	77.000	26.379	0.000
190885.000	0.500	0.480	0.000	77.000	26.379	0.000
190885.000	0.500	0.480	0.000	77.000	26.379	0.000
190915.000	0.500	0.480	0.000	77.000	26.379	0.000
190915.000	0.500	0.480	0.000	77.000	26.379	0.000
190915.000	0.500	0.480	0.000	77.000	26.379	0.000
190945.000	0.500	0.480	0.000	77.000	26.379	0.000
190945.000	0.500	0.480	0.000	77.000	26.379	0.000
190945.000	0.500	0.480	0.000	77.000	26.379	0.000
190975.000	0.500	0.480	0.000	77.000	26.379	0.000
190975.000	0.500	0.480	0.000	77.000	26.379	0.000
190975.000	0.500	0.480	0.000	77.000	26.379	0.000
191005.000	0.500	0.480	0.000	77.000	26.379	0.000
191005.000	0.500	0.480	0.000	77.000	26.379	0.000
191005.000	0.500	0.480	0.000	77.000	26.379	0.000
191035.000	0.500	0.480	0.000	77.000	26.379	0.000
191035.000	0.500	0.480	0.000	77.000	26.379	0.000
191035.000	0.500	0.480	0.000	77.000	26.379	0.000
191065.000	0.500	0.480	0.000	77.000	26.379	0.000
191065.000	0.500	0.480	0.000	77.000	26.379	0.000
191065.000	0.500	0.480	0.000	77.000	26.379	0.000
191095.000	0.500	0.480	0.016	77.000	26.379	0.000
191095.000	0.500	0.480	0.016	77.000	26.379	0.000
191095.000	0.500	0.480	0.016	77.000	26.379	0.000
191125.000	0.500	0.480	0.016	77.000	26.379	0.000
191125.000	0.500	0.480	0.016	77.000	26.379	0.000
191125.000	0.500	0.480	0.016	77.000	26.379	0.000
191155.000	0.500	0.480	0.016	77.000	26.379	0.000
191155.000	0.500	0.480	0.016	77.000	26.379	0.000
191155.000	0.500	0.480	0.016	77.000	26.379	0.000
191185.000	0.500	0.480	0.016	77.000	26.379	0.000
191185.000	0.500	0.480	0.016	77.000	26.379	0.000
191185.000	0.500	0.480	0.016	77.000	26.379	0.000
191215.000	0.500	0.480	0.031	77.000	26.379	0.000
191215.000	0.500	0.480	0.031	77.000	26.379	0.000
191215.000	0.500	0.480	0.031	77.000	26.379	0.000
191245.000	0.500	0.480	0.031	77.000	26.379	0.000
191245.000	0.500	0.480	0.031	77.000	26.379	0.000
191245.000	0.500	0.480	0.031	77.000	26.379	0.000
191275.000	0.500	0.480	0.031	77.000	26.379	0.000
191275.000	0.500	0.480	0.031	77.000	26.379	0.000
191275.000	0.500	0.480	0.031	77.000	26.379	0.000
191305.000	0.500	0.480	0.031	77.000	26.379	0.000
191305.000	0.500	0.480	0.031	77.000	26.379	0.000
191305.000	0.500	0.480	0.031	77.000	26.379	0.000
191335.000	0.500	0.480	0.031	77.000	26.379	0.000
191335.000	0.500	0.480	0.031	77.000	26.379	0.000
191335.000	0.500	0.480	0.031	77.000	26.379	0.000
191365.000	0.500	0.480	0.047	77.000	26.379	0.000
191365.000	0.500	0.480	0.047	77.000	26.379	0.000
191365.000	0.500	0.480	0.047	77.000	26.379	0.000
191395.000	0.500	0.480	0.047	77.000	26.379	0.000
191395.000	0.500	0.480	0.047	77.000	26.379	0.000
191395.000	0.500	0.480	0.047	77.000	26.379	0.000
191425.000	0.500	0.480	0.047	77.000	26.379	0.000
191425.000	0.500	0.480	0.047	77.000	26.379	0.000
191425.000	0.500	0.480	0.047	77.000	26.379	0.000
191455.000	0.500	0.480	0.047	77.000	26.379	0.000
191455.000	0.500	0.480	0.047	77.000	26.379	0.000
191455.000	0.500	0.480	0.047	77.000	26.379	0.000
191485.000	0.500	0.480	0.047	77.000	26.379	0.000
191485.000	0.500	0.480	0.047	77.000	26.379	0.000
191485.000	0.500	0.480	0.047	77.000	26.379	0.000
191515.000	0.500	0.470	0.047	77.000	26.379	0.000
191515.000	0.500	0.470	0.047	77.000	26.379	0.000
191515.000	0.500	0.470	0.047	77.000	26.379	0.000
191545.000	0.500	0.470	0.047	77.000	26.379	0.000
191545.000	0.500	0.470	0.047	77.000	26.379	0.000
191545.000	0.500	0.470	0.047	77.000	26.379	0.000
191575.000	0.500	0.470	0.047	77.000	26.379	0.000
191575.000	0.500	0.470	0.047	77.000	26.379	0.000
191575.000	0.500	0.470	0.047	77.000	26.379	0.000
191605.000	0.500	0.470	0.047	77.000	26.379	0.000
191605.000	0.500	0.470	0.047	77.000	26.379	0.000
191605.000	0.500	0.470	0.047	77.000	26.379	0.000
191635.000	0.500	0.470	0.047	77.000	26.379	0.000
191635.000	0.500	0.470	0.047	77.000	26.379	0.000
191635.000	0.500	0.470	0.047	77.000	26.379	0.000
191665.000	0.500	0.470	0.031	77.000	26.379	0.000
191665.000	0.500	0.470	0.031	77.000	26.379	0.000
191665.000	0.500	0.470	0.031	77.000	26.379	0.000
191695.000	0.500	0.470	0.031	77.000	26.379	0.000
191695.000	0.500	0.470	0.031	77.000	26.379	0.000
191695.000	0.500	0.470	0.031	77.000	26.379	0.000
191725.000	0.500	0.470	0.031	77.000	26.379	0.000
191725.000	0.500	0.470	0.031	77.000	26.379	0.000
191725.000	0.500	0.470	0.031	77.000	26.379	0.000
191755.000	0.500	0.470	0.031	77.000	26.379	0.000
191755.000	0.500	0.470	0.031	77.000	26.379	0.000
191755.000	0.500	0.470	0.031	77.000	26.379	0.000
191785.000	0.500	0.470	0.031	77.000	26.379	0.000
191785.000	0.500	0.470	0.031	77.000	26.379	0.000
191785.000	0.500	0.470	0.031	77.000	26.379	0.000
191815.000	0.500	0.470	0.016	77.000	26.379	0.000
191815.000	0.500	0.470	0.016	77.000	26.379	0.000
191815.000	0.500	0.470	0.016	77.000	26.379	0.000
191845.000	0.500	0.470	0.016	77.000	26.379	0.000
191845.000	0.500	0.470	0.016	77.000	26.379	0.000
191845.000	0.500	0.470	0.016	77.000	26.379	0.000
191875.000	0.500	0.470	0.016	77.000	26.379	0.000
191875.000	0.500	0.470	0.016	77.000	26.379	0.000
191875.000	0.500	0.470	0.016	77.000	26.379	0.000
191905.000	0.500	0.470	0.016	77.000	26.379	0.000
191905.000	0.500	0.470	0.016	77.000	26.379	0.000
191905.000	0.500	0.470	0.016	77.000	26.379	0.000
191935.000	0.500	0.480	0.016	77.000	26.379	0.000
191935.000	0.500	0.480	0.016	77.000	26.379	0.000
191935.000	0.500	0.480	0.016	77.000	26.379	0.000
191965.000	0.500	0.480	0.016	77.000	26.379	0.000
191965.000	0.500	0.480	0.016	77.000	26.379	0.000
191965.000	0.500	0.480	0.016	77.000	26.379	0.000
191995.000	0.500	0.480	0.016	77.000	26.379	0.000
191995.000	0.500	0.480	0.016	77.000	26.379	0.000
191995.000	0.500	0.480	0.016	77.000	26.379	0.000
192025.000	0.500	0.480	0.016	77.000	26.379	0.000
192025.000	0.500	0.480	0.016	77.000	26.379	0.000
192025.000	0.500	0.480	0.016	77.000	26.379	0.000
192055.000	0.500	0.480	0.016	77.000	26.379	0.000
192055.000	0.500	0.480	0.016	77.000	26.379	0.000
192055.000	0.500	0.480	0.016	77.000	26.379	0.000
192085.000	0.500	0.480	0.016	77.000	26.379	0.000
192085.000	0.500	0.480	0.016	77.000	26.379	0.000
192085.000	0.500	0.480	0.016	77.000	26.379	0.000
192115.000	0.500	0.480	0.016	77.000	26.379	0.000
192115.000	0.500	0.480	0.016	77.000	26.379	0.000
192115.000	0.500	0.480	0.016	77.000	26.379	0.000
192145.000	0.500	0.480	0.016	77.000	26.379	0.000
192145.000	0.500	0.480	0.016	77.000	26.379	0.000
192145.000	0.500	0.480	0.016	77.000	26.379	0.000
192175.000	0.500	0.480	0.016	77.000	26.379	0.000
192175.000	0.500	0.480	0.016	77.000	26.379	0.000
192175.000	0.500	0.480	0.016	77.000	26.379	0.000
192205.000	0.500	0.480	0.016	77.000	26.379	0.000
192205.000	0.500	0.480	0.016	77.000	26.379	0.000
192205.000	0.500	0.480	0.016	77.000	26.379	0.000
192235.000	0.500	0.480	0.016	77.000	26.379	0.000
192235.000	0.500	0.480	0.016	77.000	26.379	0.000
192235.000	0.500	0.480	0.016	77.000	26.379	0.000
192265.000	0.500	0.480	0.016	77.000	26.379	0.000
192265.000	0.500	0.480	0.016	77.000	26.379	0.000
192265.000	0.500	0.480	0.016	77.000	26.379	0.000
192295.000	0.500	0.480	0.031	77.000	26.379	0.000
192295.000	0.500	0.480	0.031	77.000	26.379	0.000
192295.000	0.500	0.480	0.031	77.000	26.379	0.000
192325.000	0.500	0.480	0.031	77.000	26.379	0.000
192325.000	0.500	0.480	0.031	77.000	26.379	0.000
192325.000	0.500	0.480	0.031	77.000	26.379	0.000
192355.000	0.500	0.480	0.031	77.000	26.379	0.000
192355.000	0.500	0.480	0.031	77.000	26.379	0.000
192355.000	0.500	0.480	0.031	77.000	26.379	0.000
192385.000	0.500	0.480	0.031	77.000	26.379	0.000
192385.000	0.500	0.480	0.031	77.000	26.379	0.000
192385.000	0.500	0.480	0.031	77.000	26.379	0.000
192415.000	0.500	0.480	0.031	77.000	26.379	0.000
192415.000	0.500	0.480	0.031	77.000	26.379	0.000
192415.000	0.500	0.480	0.031	77.000	26.379	0.000
192445.000	0.500	0.480	0.031	77.000	26.379	0.000
192445.000	0.500	0.480	0.031	77.000	26.379	0.000
192445.000	0.500	0.480	0.031	77.000	26.379	0.000
192475.000	0.500	0.480	0.031	77.000	26.379	0.000
192475.000	0.500	0.480	0.031	77.000	26.379	0.000
192475.000	0.500	0.480	0.031	77.000	26.379	0.000
192505.000	0.500	0.480	0.031	77.000	26.379	0.000
192505.000	0.500	0.480	0.031	77.000	26.379	0.000
192505.000	0.500	0.480	0.031	77.000	26.379	0.000
192535.000	0.500	0.480	0.031	77.000	26.379	0.000
192535.000	0.500	0.480	0.031	77.000	26.379	0.000
192535.000	0.500	0.480	0.031	77.000	26.379	0.000
192565.000	0.500	0.480	0.031	77.000	26.379	0.000
192565.000	0.500	0.480	0.031	77.000	26.379	0.000
192565.000	0.500	0.480	0.031	77.000	26.379	0.000
192595.000	0.500	0.480	0.031	77.000	26.379	0.000
192595.000	0.500	0.480	0.031	77.000	26.379	0.000
192595.000	0.500	0.480	0.031	77.000	26.379	0.000
192625.000	0.500	0.480	0.031	77.000	26.379	0.000
192625.000	0.500	0.480	0.031	77.000	26.379	0.000
192625.000	0.500	0.480	0.031	77.000	26.379	0.000
192655.000	0.500	0.480	0.031	77.000	26.379	0.000
192655.000	0.500	0.480	0.031	77.000	26.379	0.000
192655.000	0.500	0.480	0.031	77.000	26.379	0.000
192685.000	0.500	0.480	0.031	77.000	26.379	0.000
192685.000	0.500	0.480	0.031	77.000	26.379	0.000
192685.000	0.500	0.480	0.031	77.000	26.379	0.000
192715.000	0.500	0.480	0.031	77.000	26.379	0.000
192715.000	0.500	0.480	0.031	77.000	26.379	0.000
192715.000	0.500	0.480	0.031	77.000	26.379	0.000
192745.000	0.500	0.480	0.031	77.000	26.379	0.000
192745.000	0.500	0.480	0.031	77.000	26.379	0.000
192745.000	0.500	0.480	0.031	77.000	26.379	0.000
192775.000	0.500	0.480	0.016	77.000	26.379	0.000
192775.000	0.500	0.480	0.016	77.000	26.379	0.000
192775.000	0.500	0.480	0.016	77.000	26.379	0.000
192805.000	0.500	0.480	0.016	77.000	26.379	0.000
192805.000	0.500	0.480	0.016	77.000	26.379	0.000
192805.000	0.500	0.480	0.016	77.000	26.379	0.000
192835.000	0.500	0.480	0.016	77.000	26.379	0.000
192835.000	0.500	0.480	0.016	77.000	26.379	0.000
192835.000	0.500	0.480	0.016	77.000	26.379	0.000
192865.000	0.500	0.480	0.016	77.000	26.379	0.000
192865.000	0.500	0.480	0.016	77.000	26.379	0.000
192865.000	0.500	0.480	0.016	77.000	26.379	0.000
192895.000	0.500	0.480	0.016	77.000	26.379	0.000
192895.000	0.500	0.480	0.016	77.000	26.379	0.000
192895.000	0.500	0.480	0.016	77.000	26.379	0.000
192925.000	0.500	0.480	0.016	77.000	26.379	0.000
192925.000	0.500	0.480	0.016	77.000	26.379	0.000
192925.000	0.500	0.480	0.016	77.000	26.379	0.000
192955.000	0.500	0.480	0.016	77.000	26.379	0.000
192955.000	0.500	0.480	0.016	77.000	26.379	0.000
192955.000	0.500	0.480	0.016	77.000	26.379	0.000
192985.000	0.500	0.480	0.016	77.000	26.379	0.000
192985.000	0.500	0.480	0.016	77.000	26.379	0.000
192985.000	0.500	0.480	0.016	77.000	26.379	0.000
193015.000	0.500	0.480	0.016	77.000	26.379	0.000
193015.000	0.500	0.480	0.016	77.000	26.379	0.000
193015.000	0.500	0.480	0.016	77.000	26.379	0.000
193045.000	0.500	0.480	0.016	77.000	26.379	0.000
193045.000	0.500	0.480	0.016	77.000	26.379	0.000
193045.000	0.500	0.480	0.016	77.000	26.379	0.000
193075.000	0.500	0.480	0.016	77.000	26.379	0.000
193075.000	0.500	0.480	0.016	77.000	26.379	0.000
193075.000	0.500	0.480	0.016	77.000	26.379	0.000
193105.000	0.500	0.480	0.016	77.000	26.379	0.000
193105.000	0.500	0.480	0.016	77.000	26.379	0.000
193105.000	0.500	0.480	0.016	77.000	26.379	0.000
193135.000	0.500	0.480	0.016	77.000	26.379	0.000
193135.000	0.500	0.480	0.016	77.000	26.379	0.000
193135.000	0.500	0.480	0.016	77.000	26.379	0.000
193165.000	0.500	0.480	0.016	77.000	26.379	0.000
193165.000	0.500	0.480	0.016	77.000	26.379	0.000
193165.000	0.500	0.480	0.016	77.000	26.379	0.000
193195.000	0.500	0.480	0.016	77.000	26.379	0.000
193195.000	0.500	0.480	0.016	77.000	26.379	0.000
193195.000	0.500	0.480	0.016	77.000	26.379	0.000
193225.000	0.500	0.480	0.016	77.000	26.379	0.000
193225.000	0.500	0.480	0.016	77.000	26.379	0.000
193225.000	0.500	0.480	0.016	77.000	26.379	0.000
193255.000	0.500	0.480	0.016	77.000	26.379	0.000
193255.000	0.500	0.480	0.016	77.000	26.379	0.000
193255.000	0.500	0.480	0.016	77.000	26.379	0.000
193285.000	0.500	0.480	0.016	77.000	26.379	0.000
193285.000	0.500	0.480	0.016	77.000	26.379	0.000
193285.000	0.500	0.480	0.016	77.000	26.379	0.000
193315.000	0.500	0.480	0.016	77.000	26.379	0.000
193315.000	0.500	0.480	0.016	77.000	26.379	0.000
193315.000	0.500	0.480	0.016	77.000	26.379	0.000
193345.000	0.500	0.480	0.031	77.000	26.379	0.000
193345.000	0.500	0.480	0.031	77.000	26.379	0.000
193345.000	0.500	0.480	0.031	77.000	26.379	0.000
193375.000	0.500	0.480	0.031	77.000	26.379	0.000
193375.000	0.500	0.480	0.031	77.000	26.379	0.000
193375.000	0.500	0.480	0.031	77.000	26.379	0.000
193405.000	0.500	0.480	0.031	77.000	26.379	0.000
193405.000	0.500	0.480	0.031	77.000	26.379	0.000
193405.000	0.500	0.480	0.031	77.000	26.379	0.000
193435.000	0.500	0.480	0.031	77.000	26.379	0.000
193435.000	0.500	0.480	0.031	77.000	26.379	0.000
193435.000	0.500	0.480	0.031	77.000	26.379	0.000
193465.000	0.500	0.480	0.031	77.000	26.379	0.000
193465.000	0.500	0.480	0.031	77.000	26.379	0.000
193465.000	0.500	0.480	0.031	77.000	26.379	0.000
193495.000	0.500	0.480	0.031	77.000	26.379	0.000
193495.000	0.500	0.480	0.031	77.000	26.379	0.000
193495.000	0.500	0.480	0.031	77.000	26.379	0.000
193525.000	0.500	0.480	0.031	77.000	26.379	0.000
193525.000	0.500	0.480	0.031	77.000	26.379	0.000
193525.000	0.500	0.480	0.031	77.000	26.379	0.000
193555.000	0.500	0.480	0.031	77.000	26.379	0.000
193555.000	0.500	0.480	0.031	77.000	26.379	0.000
193555.000	0.500	0.480	0.031	77.000	26.379	0.000
193585.000	0.500	0.480	0.031	77.000	26.379	0.000
193585.000	0.500	0.480	0.031	77.000	26.379	0.000
193585.000	0.500	0.480	0.031	77.000	26.379	0.000
193615.000	0.500	0.480	0.031	77.000	26.379	0.000
193615.000	0.500	0.480	0.031	77.000	26.379	0.000
193615.000	0.500	0.480	0.031	77.000	26.379	0.000
193645.000	0.500	0.480	0.031	77.000	26.379	0.000
193645.000	0.500	0.480	0.031	77.000	26.379	0.000
193645.000	0.500	0.480	0.031	77.000	26.379	0.000
193675.000	0.500	0.480	0.016	77.000	26.379	0.000
193675.000	0.500	0.480	0.016	77.000	26.379	0.000
193675.000	0.500	0.480	0.016	77.000	26.379	0.000
193705.000	0.500	0.480	0.016	77.000	26.379	0.000
193705.000	0.500	0.480	0.016	77.000	26.379	0.000
193705.000	0.500	0.480	0.016	77.000	26.379	0.000
193735.000	0.500	0.480	0.016	77.000	26.379	0.000
193735.000	0.500	0.480	0.016	77.000	26.379	0.000
193735.000	0.500	0.480	0.016	77.000	26.379	0.000
193765.000	0.500	0.480	0.016	77.000	26.379	0.000
193765.000	0.500	0.480	0.016	77.000	26.379	0.000
193765.000	0.500	0.480	0.016	77.000	26.379	0.000
193795.000	0.500	0.480	0.016	77.000	26.379	0.000
193795.000	0.500	0.480	0.016	77.000	26.379	0.000
193795.000	0.500	0.480	0.016	77.000	26.379	0.000
193825.000	0.500	0.480	0.016	77.000	26.379	0.000
193825.000	0.500	0.480	0.016	77.000	26.379	0.000
193825.000	0.500	0.480	0.016	77.000	26.379	0.000
193855.000	0.500	0.480	0.016	77.000	26.379	0.000
193855.000	0.500	0.480	0.016	77.000	26.379	0.000
193855.000	0.500	0.480	0.016	77.000	26.379	0.000
193885.000	0.500	0.480	0.016	77.000	26.379	0.000
193885.000	0.500	0.480	0.016	77.000	26.379	0.000
193885.000	0.500	0.480	0.016	77.000	26.379	0.000
193915.000	0.500	0.480	0.016	77.000	26.379	0.000
193915.000	0.500	0.480	0.016	77.000	26.379	0.000
193915.000	0.500	0.480	0.016	77.000	26.379	0.000
193945.000	0.500	0.480	0.016	77.000	26.379	0.000
193945.000	0.500	0.480	0.016	77.000	26.379	0.000
193945.000	0.500	0.480	0.016	77.000	26.379	0.000
193975.000	0.500	0.480	0.016	77.000	26.379	0.000
193975.000	0.500	0.480	0.016	77.000	26.379	0.000
193975.000	0.500	0.480	0.016	77.000	26.379	0.000
194005.000	0.500	0.480	0.016	77.000	26.379	0.000
194005.000	0.500	0.480	0.016	77.000	26.379	0.000
194005.000	0.500	0.480	0.016	77.000	26.379	0.000
194035.000	0.500	0.480	0.016	77.000	26.379	0.000
194035.000	0.500	0.480	0.016	77.000	26.379	0.000
194035.000	0.500	0.480	0.016	77.000	26.379	0.000
194065.000	0.500	0.480	0.016	77.000	26.379	0.000
194065.000	0.500	0.480	0.016	77.000	26.379	0.000
194065.000	0.500	0.480	0.016	77.000	26.379	0.000
194095.000	0.500	0.480	0.016	77.000	26.379	0.000
194095.000	0.500	0.480	0.016	77.000	26.379	0.000
194095.000	0.500	0.480	0.016	77.000	26.379	0.000
194125.000	0.500	0.480	0.016	77.000	26.379	0.000
194125.000	0.500	0.480	0.016	77.000	26.379	0.000
194125.000	0.500	0.480	0.016	77.000	26.379	0.000
194155.000	0.500	0.480	0.016	77.000	26.379	0.000
194155.000	0.500	0.480	0.016	77.000	26.379	0.000
194155.000	0.500	0.480	0.016	77.000	26.379	0.000
194185.000	0.500	0.480	0.016	77.000	26.379	0.000
194185.000	0.500	0.480	0.016	77.000	26.379	0.000
194185.000	0.500	0.480	0.016	77.000	26.379	0.000
194215.000	0.500	0.480	0.016	77.000	26.379	0.000
194215.000	0.500	0.480	0.016	77.000	26.379	0.000
194215.000	0.500	0.480	0.016	77.000	26.379	0.000
194245.000	0.500	0.480	0.016	77.000	26.379	0.000
194245.000	0.500	0.480	0.016	77.000	26.379	0.000
194245.000	0.500	0.480	0.016	77.000	26.379	0.000
194275.000	0.500	0.480	0.016	77.000	26.379	0.000
194275.000	0.500	0.480	0.016	77.000	26.379	0.000
194275.000	0.500	0.480	0.016	77.000	26.379	0.000
194305.000	0.500	0.480	0.016	77.000	26.379	0.000
194305.000	0.500	0.480	0.016	77.000	26.379	0.000
194305.000	0.500	0.480	0.016	77.000	26.379	0.000
194335.000	0.500	0.480	0.016	77.000	26.379	0.000
194335.000	0.500	0.480	0.016	77.000	26.379	0.000
194335.000	0.500	0.480	0.016	77.000	26.379	0.000
194365.000	0.500	0.480	0.016	77.000	26.379	0.000
194365.000	0.500	0.480	0.016	77.000	26.379	0.000
194365.000	0.500	0.480	0.016	77.000	26.379	0.000
194395.000	0.500	0.480	0.016	77.000	26.379	0.000
194395.000	0.500	0.480	0.016	77.000	26.379	0.000
194395.000	0.500	0.480	0.016	77.000	26.379	0.000
194425.000	0.500	0.480	0.016	77.000	26.379	0.000
194425.000	0.500	0.480	0.016	77.000	26.379	0.000
194425.000	0.500	0.480	0.016	77.000	26.379	0.000
194455.000	0.500	0.480	0.016	77.000	26.379	0.000
194455.000	0.500	0.480	0.016	77.000	26.379	0.000
194455.000	0.500	0.480	0.016	77.000	26.379	0.000
194485.000	0.500	0.480	0.031	77.000	26.379	0.000
194485.000	0.500	0.480	0.031	77.000	26.379	0.000
194485.000	0.500	0.480	0.031	77.000	26.379	0.000
194515.000	0.500	0.480	0.016	77.000	26.379	0.000
194515.000	0.500	0.480	0.016	77.000	26.379	0.000
194515.000	0.500	0.480	0.016	77.000	26.379	0.000
194545.000	0.500	0.480	0.016	77.000	26.379	0.000
194545.000	0.500	0.480	0.016	77.000	26.379	0.000
194545.000	0.500	0.480	0.016	77.000	26.379	0.000
194575.000	0.500	0.480	0.016	77.000	26.379	0.000
194575.000	0.500	0.480	0.016	77.000	26.379	0.000
194575.000	0.500	0.480	0.016	77.000	26.379	0.000
194605.000	0.500	0.480	0.016	77.000	26.379	0.000
194605.000	0.500	0.480	0.016	77.000	26.379	0.000
194605.000	0.500	0.480	0.016	77.000	26.379	0.000
194635.000	0.500	0.480	0.016	77.000	26.379	0.000
194635.000	0.500	0.480	0.016	77.000	26.379	0.000
194635.000	0.500	0.480	0.016	77.000	26.379	0.000
194665.000	0.500	0.480	0.016	77.000	26.379	0.000
194665.000	0.500	0.480	0.016	77.000	26.379	0.000
194665.000	0.500	0.480	0.016	77.000	26.379	0.000
194695.000	0.500	0.480	0.016	77.000	26.379	0.000
194695.000	0.500	0.480	0.016	77.000	26.379	0.000
194695.000	0.500	0.480	0.016	77.000	26.379	0.000
194725.000	0.500	0.480	0.016	77.000	26.379	0.000
194725.000	0.500	0.480	0.016	77.000	26.379	0.000
194725.000	0.500	0.480	0.016	77.000	26.379	0.000
194755.000	0.500	0.480	0.016	77.000	26.379	0.000
194755.000	0.500	0.480	0.016	77.000	26.379	0.000
194755.000	0.500	0.480	0.016	77.000	26.379	0.000
194785.000	0.500	0.480	0.016	77.000	26.379	0.000
194785.000	0.500	0.480	0.016	77.000	26.379	0.000
194785.000	0.500	0.480	0.016	77.000	26.379	0.000
194815.000	0.500	0.480	0.016	77.000	26.379	0.000
194815.000	0.500	0.480	0.016	77.000	26.379	0.000
194815.000	0.500	0.480	0.016	77.000	26.379	0.000
194845.000	0.500	0.480	0.016	77.000	26.379	0.000
194845.000	0.500	0.480	0.016	77.000	26.379	0.000
194845.000	0.500	0.480	0.016	77.000	26.379	0.000
194875.000	0.500	0.480	0.016	77.000	26.379	0.000
194875.000	0.500	0.480	0.016	77.000	26.379	0.000
194875.000	0.500	0.480	0.016	77.000	26.379	0.000
194905.000	0.500	0.480	0.016	77.000	26.379	0.000
194905.000	0.500	0.480	0.016	77.000	26.379	0.000
194905.000	0.500	0.480	0.016	77.000	26.379	0.000
194935.000	0.500	0.480	0.016	77.000	26.379	0.000
194935.000	0.500	0.480	0.016	77.000	26.379	0.000
194935.000	0.500	0.480	0.016	77.000	26.379	0.000
194965.000	0.500	0.480	0.016	77.000	26.379	0.000
194965.000	0.500	0.480	0.016	77.000	26.379	0.000
194965.000	0.500	0.480	0.016	77.000	26.379	0.000
194995.000	0.500	0.480	0.016	77.000	26.379	0.000
194995.000	0.500	0.480	0.016	77.000	26.379	0.000
194995.000	0.500	0.480	0.016	77.000	26.379	0.000
195025.000	0.500	0.480	0.016	77.000	26.379	0.000
195025.000	0.500	0.480	0.016	77.000	26.379	0.000
195025.000	0.500	0.480	0.016	77.000	26.379	0.000
195055.000	0.500	0.480	0.016	77.000	26.379	0.000
195055.000	0.500	0.480	0.016	77.000	26.379	0.000
195055.000	0.500	0.480	0.016	77.000	26.379	0.000
195085.000	0.500	0.480	0.016	77.000	26.379	0.000
195085.000	0.500	0.480	0.016	77.000	26.379	0.000
195085.000	0.500	0.480	0.016	77.000	26.379	0.000
195115.000	0.500	0.480	0.016	77.000	26.379	0.000
195115.000	0.500	0.480	0.016	77.000	26.379	0.000
195115.000	0.500	0.480	0.016	77.000	26.379	0.000
195145.000	0.500	0.480	0.016	77.000	26.379	0.000
195145.000	0.500	0.480	0.016	77.000	26.379	0.000
195145.000	0.500	0.480	0.016	77.000	26.379	0.000
195175.000	0.500	0.480	0.016	77.000	26.379	0.000
195175.000	0.500	0.480	0.016	77.000	26.379	0.000
195175.000	0.500	0.480	0.016	77.000	26.379	0.000
195205.000	0.500	0.480	0.016	77.000	26.379	0.000
195205.000	0.500	0.480	0.016	77.000	26.379	0.000
195205.000	0.500	0.480	0.016	77.000	26.379	0.000
195235.000	0.500	0.480	0.016	77.000	26.379	0.000
195235.000	0.500	0.480	0.016	77.000	26.379	0.000
195235.000	0.500	0.480	0.016	77.000	26.379	0.000
195265.000	0.500	0.480	0.016	77.000	26.379	0.000
195265.000	0.500	0.480	0.016	77.000	26.379	0.000
195265.000	0.500	0.480	0.016	77.000	26.379	0.000
195295.000	0.500	0.480	0.016	77.000	26.379	0.000
195295.000	0.500	0.480	0.016	77.000	26.379	0.000
195295.000	0.500	0.480	0.016	77.000	26.379	0.000
195325.000	0.500	0.480	0.016	77.000	26.379	0.000
195325.000	0.500	0.480	0.016	77.000	26.379	0.000
195325.000	0.500	0.480	0.016	77.000	26.379	0.000
195355.000	0.500	0.480	0.016	77.000	26.379	0.000
195355.000	0.500	0.480	0.016	77.000	26.379	0.000
195355.000	0.500	0.480	0.016	77.000	26.379	0.000
195385.000	0.500	0.480	0.016	77.000	26.379	0.000
195385.000	0.500	0.480	0.016	77.000	26.379	0.000
195385.000	0.500	0.480	0.016	77.000	26.379	0.000
195415.000	0.500	0.480	0.016	77.000	26.379	0.000
195415.000	0.500	0.480	0.016	77.000	26.379	0.000
195415.000	0.500	0.480	0.016	77.000	26.379	0.000
195445.000	0.500	0.480	0.016	77.000	26.379	0.000
195445.000	0.500	0.480	0.016	77.000	26.379	0.000
195445.000	0.500	0.480	0.016	77.000	26.379	0.000
195475.000	0.500	0.480	0.016	77.000	26.379	0.000
195475.000	0.500	0.480	0.016	77.000	26.379	0.000
195475.000	0.500	0.480	0.016	77.000	26.379	0.000
195505.000	0.500	0.480	0.016	77.000	26.379	0.000
195505.000	0.500	0.480	0.016	77.000	26.379	0.000
195505.000	0.500	0.480	0.016	77.000	26.379	0.000
195535.000	0.500	0.480	0.016	77.000	26.379	0.000
195535.000	0.500	0.480	0.016	77.000	26.379	0.000
195535.000	0.500	0.480	0.016	77.000	26.379	0.000
195565.000	0.500	0.480	0.016	77.000	26.379	0.000
195565.000	0.500	0.480	0.016	77.000	26.379	0.000
195565.000	0.500	0.480	0.016	77.000	26.379	0.000
195595.000	0.500	0.480	0.016	77.000	26.379	0.000
195595.000	0.500	0.480	0.016	77.000	26.379	0.000
195595.000	0.500	0.480	0.016	77.000	26.379	0.000
195625.000	0.500	0.480	0.016	77.000	26.379	0.000
195625.000	0.500	0.480	0.016	77.000	26.379	0.000
195625.000	0.500	0.480	0.016	77.000	26.379	0.000
195655.000	0.500	0.480	0.016	77.000	26.379	0.000
195655.000	0.500	0.480	0.016	77.000	26.379	0.000
195655.000	0.500	0.480	0.016	77.000	26.379	0.000
195685.000	0.500	0.480	0.016	77.000	26.379	0.000
195685.000	0.500	0.480	0.016	77.000	26.379	0.000
195685.000	0.500	0.480	0.016	77.000	26.379	0.000
195715.000	0.500	0.480	0.016	77.000	26.379	0.000
195715.000	0.500	0.480	0.016	77.000	26.379	0.000
195715.000	0.500	0.480	0.016	77.000	26.379	0.000
195745.000	0.500	0.480	0.016	77.000	26.379	0.000
195745.000	0.500	0.480	0.016	77.000	26.379	0.000
195745.000	0.500	0.480	0.016	77.000	26.379	0.000
195775.000	0.500	0.480	0.016	77.000	26.379	0.000
195775.000	0.500	0.480	0.016	77.000	26.379	0.000
195775.000	0.500	0.480	0.016	77.000	26.379	0.000
195805.000	0.500	0.480	0.016	77.000	26.379	0.000
195805.000	0.500	0.480	0.016	77.000	26.379	0.000
195805.000	0.500	0.480	0.016	77.000	26.379	0.000
195835.000	0.500	0.480	0.016	77.000	26.379	0.000
195835.000	0.500	0.480	0.016	77.000	26.379	0.000
195835.000	0.500	0.480	0.016	77.000	26.379	0.000
195865.000	0.500	0.480	0.016	77.000	26.379	0.000
195865.000	0.500	0.480	0.016	77.000	26.379	0.000
195865.000	0.500	0.480	0.016	77.000	26.379	0.000
195895.000	0.500	0.480	0.016	77.000	26.379	0.000
195895.000	0.500	0.480	0.016	77.000	26.379	0.000
195895.000	0.500	0.480	0.016	77.000	26.379	0.000
195925.000	0.500	0.480	0.016	77.000	26.379	0.000
195925.000	0.500	0.480	0.016	77.000	26.379	0.000
195925.000	0.500	0.480	0.016	77.000	26.379	0.000
195955.000	0.500	0.480	0.016	77.000	26.379	0.000
195955.000	0.500	0.480	0.016	77.000	26.379	0.000
195955.000	0.500	0.480	0.016	77.000	26.379	0.000
195985.000	0.500	0.480	0.016	77.000	26.379	0.000
195985.000	0.500	0.480	0.016	77.000	26.379	0.000
195985.000	0.500	0.480	0.016	77.000	26.379	0.000
196015.000	0.500	0.480	0.016	77.000	26.379	0.000
196015.000	0.500	0.480	0.016	77.000	26.379	0.000
196015.000	0.500	0.480	0.016	77.000	26.379	0.000
196045.000	0.500	0.480	0.016	77.000	26.379	0.000
196045.000	0.500	0.480	0.016	77.000	26.379	0.000
196045.000	0.500	0.480	0.016	77.000	26.379	0.000
196075.000	0.500	0.480	0.016	77.000	26.379	0.000
196075.000	0.500	0.480	0.016	77.000	26.379	0.000
196075.000	0.500	0.480	0.016	77.000	26.379	0.000
196105.000	0.500	0.480	0.016	77.000	26.379	0.000
196105.000	0.500	0.480	0.016	77.000	26.379	0.000
196105.000	0.500	0.480	0.016	77.000	26.379	0.000
196135.000	0.500	0.480	0.016	77.000	26.379	0.000
196135.000	0.500	0.480	0.016	77.000	26.379	0.000
196135.000	0.500	0.480	0.016	77.000	26.379	0.000
196165.000	0.500	0.480	0.016	77.000	26.379	0.000
196165.000	0.500	0.480	0.016	77.000	26.379	0.000
196165.000	0.500	0.480	0.016	77.000	26.379	0.000
196195.000	0.500	0.480	0.016	77.000	26.379	0.000
196195.000	0.500	0.480	0.016	77.000	26.379	0.000
196195.000	0.500	0.480	0.016	77.000	26.379	0.000
196225.000	0.500	0.480	0.016	77.000	26.379	0.000
196225.000	0.500	0.480	0.016	77.000	26.379	0.000
196225.000	0.500	0.480	0.016	77.000	26.379	0.000
196255.000	0.500	0.480	0.016	77.000	26.379	0.000
196255.000	0.500	0.480	0.016	77.000	26.379	0.000
196255.000	0.500	0.480	0.016	77.000	26.379	0.000
196285.000	0.500	0.480	0.016	77.000	26.379	0.000
196285.000	0.500	0.480	0.016	77.000	26.379	0.000
196285.000	0.500	0.480	0.016	77.000	26.379	0.000
196315.000	0.500	0.480	0.016	77.000	26.379	0.000
196315.000	0.500	0.480	0.016	77.000	26.379	0.000
196315.000	0.500	0.480	0.016	77.000	26.379	0.000
196345.000	0.500	0.480	0.016	77.000	26.379	0.000
196345.000	0.500	0.480	0.016	77.000	26.379	0.000
196345.000	0.500	0.480	0.016	77.000	26.379	0.000
196375.000	0.500	0.480	0.016	77.000	26.379	0.000
196375.000	0.500	0.480	0.016	77.000	26.379	0.000
196375.000	0.500	0.480	0.016	77.000	26.379	0.000
196405.000	0.500	0.480	0.016	77.000	26.379	0.000
196405.000	0.500	0.480	0.016	77.000	26.379	0.000
196405.000	0.500	0.480	0.016	77.000	26.379	0.000
196435.000	0.500	0.480	0.016	77.000	26.379	0.000
196435.000	0.500	0.480	0.016	77.000	26.379	0.000
196435.000	0.500	0.480	0.016	77.000	26.379	0.000
196465.000	0.500	0.480	0.016	77.000	26.379	0.000
196465.000	0.500	0.480	0.016	77.000	26.379	0.000
196465.000	0.500	0.480	0.016	77.000	26.379	0.000
196495.000	0.500	0.480	0.016	77.000	26.379	0.000
196495.000	0.500	0.480	0.016	77.000	26.379	0.000
196495.000	0.500	0.480	0.016	77.000	26.379	0.000
196525.000	0.500	0.480	0.016	77.000	26.379	0.000
196525.000	0.500	0.480	0.016	77.000	26.379	0.000
196525.000	0.500	0.480	0.016	77.000	26.379	0.000
196555.000	0.500	0.480	0.016	77.000	26.379	0.000
196555.000	0.500	0.480	0.016	77.000	26.379	0.000
196555.000	0.500	0.480	0.016	77.000	26.379	0.000
196585.000	0.500	0.480	0.016	77.000	26.379	0.000
196585.000	0.500	0.480	0.016	77.000	26.379	0.000
196585.000	0.500	0.480	0.016	77.000	26.379	0.000
196615.000	0.500	0.480	0.016	77.000	26.379	0.000
196615.000	0.500	0.480	0.016	77.000	26.379	0.000
196615.000	0.500	0.480	0.016	77.000	26.379	0.000
196645.000	0.500	0.480	0.016	77.000	26.379	0.000
196645.000	0.500	0.480	0.016	77.000	26.379	0.000
196645.000	0.500	0.480	0.016	77.000	26.379	0.000
196675.000	0.500	0.480	0.016	77.000	26.379	0.000
196675.000	0.500	0.480	0.016	77.000	26.379	0.000
196675.000	0.500	0.480	0.016	77.000	26.379	0.000
196705.000	0.500	0.480	0.016	77.000	26.379	0.000
196705.000	0.500	0.480	0.016	77.000	26.379	0.000
196705.000	0.500	0.480	0.016	77.000	26.379	0.000
196735.000	0.500	0.480	0.016	77.000	26.379	0.000
196735.000	0.500	0.480	0.016	77.000	26.379	0.000
196735.000	0.500	0.480	0.016	77.000	26.379	0.000
196765.000	0.500	0.480	0.016	77.000	26.379	0.000
196765.000	0.500	0.480	0.016	77.000	26.379	0.000
196765.000	0.500	0.480	0.016	77.000	26.379	0.000
196795.000	0.500	0.480	0.016	77.000	26.379	0.000
196795.000	0.500	0.480	0.016	77.000	26.379	0.000
196795.000	0.500	0.480	0.016	77.000	26.379	0.000
196825.000	0.500	0.480	0.016	77.000	26.379	0.000
196825.000	0.500	0.480	0.016	77.000	26.379	0.000
196825.000	0.500	0.480	0.016	77.000	26.379	0.000
196855.000	0.500	0.480	0.016	77.000	26.379	0.000
196855.000	0.500	0.480	0.016	77.000	26.379	0.000
196855.000	0.500	0.480	0.016	77.000	26.379	0.000
196885.000	0.500	0.480	0.016	77.000	26.379	0.000
196885.000	0.500	0.480	0.016	77.000	26.379	0.000
196885.000	0.500	0.480	0.016	77.000	26.379	0.000
196915.000	0.500	0.480	0.016	77.000	26.379	0.000
196915.000	0.500	0.480	0.016	77.000	26.379	0.000
196915.000	0.500	0.480	0.016	77.000	26.379	0.000
196945.000	0.500	0.480	0.016	77.000	26.379	0.000
196945.000	0.500	0.480	0.016	77.000	26.379	0.000
196945.000	0.500	0.480	0.016	77.000	26.379	0.000
196975.000	0.500	0.480	0.016	77.000	26.379	0.000
196975.000	0.500	0.480	0.016	77.000	26.379	0.000
196975.000	0.500	0.480	0.016	77.000	26.379	0.000
197005.000	0.500	0.480	0.016	77.000	26.379	0.000
197005.000	0.500	0.480	0.016	77.000	26.379	0.000
197005.000	0.500	0.480	0.016	77.000	26.379	0.000
197035.000	0.500	0.480	0.016	77.000	26.379	0.000
197035.000	0.500	0.480	0.016	77.000	26.379	0.000
197035.000	0.500	0.480	0.016	77.000	26.379	0.000
197065.000	0.500	0.480	0.016	77.000	26.379	0.000
197065.000	0.500	0.480	0.016	77.000	26.379	0.000
197065.000	0.500	0.480	0.016	77.000	26.379	0.000
197095.000	0.500	0.480	0.016	77.000	26.379	0.000
197095.000	0.500	0.480	0.016	77.000	26.379	0.000
197095.000	0.500	0.480	0.016	77.000	26.379	0.000
197125.000	0.500	0.480	0.016	77.000	26.379	0.000
197125.000	0.500	0.480	0.016	77.000	26.379	0.000
197125.000	0.500	0.480	0.016	77.000	26.379	0.000
197155.000	0.500	0.480	0.016	77.000	26.379	0.000
197155.000	0.500	0.480	0.016	77.000	26.379	0.000
197155.000	0.500	0.480	0.016	77.000	26.379	0.000
197185.000	0.500	0.480	0.016	77.000	26.379	0.000
197185.000	0.500	0.480	0.016	77.000	26.379	0.000
197185.000	0.500	0.480	0.016	77.000	26.379	0.000
197215.000	0.500	0.480	0.016	77.000	26.379	0.000
197215.000	0.500	0.480	0.016	77.000	26.379	0.000
197215.000	0.500	0.480	0.016	77.000	26.379	0.000
197245.000	0.500	0.480	0.016	77.000	26.379	0.000
197245.000	0.500	0.480	0.016	77.000	26.379	0.000
197245.000	0.500	0.480	0.016	77.000	26.379	0.000
197275.000	0.500	0.480	0.016	77.000	26.379	0.000
197275.000	0.500	0.480	0.016	77.000	26.379	0.000
197275.000	0.500	0.480	0.016	77.000	26.379	0.000
197305.000	0.500	0.480	0.016	77.000	26.379	0.000
197305.000	0.500	0.480	0.016	77.000	26.379	0.000
197305.000	0.500	0.480	0.016	77.000	26.379	0.000
197335.000	0.500	0.480	0.016	77.000	26.379	0.000
197335.000	0.500	0.480	0.016	77.000	26.379	0.000
197335.000	0.500	0.480	0.016	77.000	26.379	0.000
197365.000	0.500	0.480	0.016	77.000	26.379	0.000
197365.000	0.500	0.480	0.016	77.000	26.379	0.000
197365.000	0.500	0.480	0.016	77.000	26.379	0.000
197395.000	0.500	0.480	0.016	77.000	26.379	0.000
197395.000	0.500	0.480	0.016	77.000	26.379	0.000
197395.000	0.500	0.480	0.016	77.000	26.379	0.000
197425.000	0.500	0.480	0.016	77.000	26.379	0.000
197425.000	0.500	0.480	0.016	77.000	26.379	0.000
197425.000	0.500	0.480	0.016	77.000	26.379	0.000
197455.000	0.500	0.480	0.016	77.000	26.379	0.000
197455.000	0.500	0.480	0.016	77.000	26.379	0.000
197455.000	0.500	0.480	0.016	77.000	26.379	0.000
197485.000	0.500	0.480	0.016	77.000	26.379	0.000
197485.000	0.500	0.480	0.016	77.000	26.379	0.000
197485.000	0.500	0.480	0.016	77.000	26.379	0.000
197515.000	0.500	0.480	0.016	77.000	26.379	0.000
197515.000	0.500	0.480	0.016	77.000	26.379	0.000
197515.000	0.500	0.480	0.016	77.000	26.379	0.000
197545.000	0.500	0.480	0.016	77.000	26.379	0.000
197545.000	0.500	0.480	0.016	77.000	26.379	0.000
197545.000	0.500	0.480	0.016	77.000	26.379	0.000
197575.000	0.500	0.480	0.016	77.000	26.379	0.000
197575.000	0.500	0.480	0.016	77.000	26.379	0.000
197575.000	0.500	0.480	0.016	77.000	26.379	0.000
197605.000	0.500	0.480	0.016	77.000	26.379	0.000
197605.000	0.500	0.480	0.016	77.000	26.379	0.000
197605.000	0.500	0.480	0.016	77.000	26.379	0.000
197635.000	0.500	0.480	0.016	77.000	26.379	0.000
197635.000	0.500	0.480	0.016	77.000	26.379	0.000
197635.000	0.500	0.480	0.016	77.000	26.379	0.000
197665.000	0.500	0.480	0.016	77.000	26.379	0.000
197665.000	0.500	0.480	0.016	77.000	26.379	0.000
197665.000	0.500	0.480	0.016	77.000	26.379	0.000
197695.000	0.500	0.480	0.016	77.000	26.379	0.000
197695.000	0.500	0.480	0.016	77.000	26.379	0.000
197695.000	0.500	0.480	0.016	77.000	26.379	0.000
197725.000	0.500	0.480	0.016	77.000	26.379	0.000
197725.000	0.500	0.480	0.016	77.000	26.379	0.000
197725.000	0.500	0.480	0.016	77.000	26.379	0.000
197755.000	0.500	0.480	0.016	77.000	26.379	0.000
197755.000	0.500	0.480	0.016	77.000	26.379	0.000
197755.000	0.500	0.480	0.016	77.000	26.379	0.000
197785.000	0.500	0.480	0.016	77.000	26.379	0.000
197785.000	0.500	0.480	0.016	77.000	26.379	0.000
197785.000	0.500	0.480	0.016	77.000	26.379	0.000
197815.000	0.500	0.480	0.016	77.000	26.379	0.000
197815.000	0.500	0.480	0.016	77.000	26.379	0.000
197815.000	0.500	0.480	0.016	77.000	26.379	0.000
197845.000	0.500	0.480	0.016	77.000	26.379	0.000
197845.000	0.500	0.480	0.016	77.000	26.379	0.000
197845.000	0.500	0.480	0.016	77.000	26.379	0.000
197875.000	0.500	0.480	0.016	77.000	26.379	0.000
197875.000	0.500	0.480	0.016	77.000	26.379	0.000
197875.000	0.500	0.480	0.016	77.000	26.379	0.000
197905.000	0.500	0.480	0.016	77.000	26.379	0.000
197905.000	0.500	0.480	0.016	77.000	26.379	0.000
197905.000	0.500	0.480	0.016	77.000	26.379	0.000
197935.000	0.500	0.480	0.016	77.000	26.379	0.000
197935.000	0.500	0.480	0.016	77.000	26.379	0.000
197935.000	0.500	0.480	0.016	77.000	26.379	0.000
197965.000	0.500	0.480	0.016	77.000	26.379	0.000
197965.000	0.500	0.480	0.016	77.000	26.379	0.000
197965.000	0.500	0.480	0.016	77.000	26.379	0.000
197995.000	0.500	0.480	0.016	77.000	26.379	0.000
197995.000	0.500	0.480	0.016	77.000	26.379	0.000
197995.000	0.500	0.480	0.016	77.000	26.379	0.000
198025.000	0.500	0.480	0.016	77.000	26.379	0.000
198025.000	0.500	0.480	0.016	77.000	26.379	0.000
198025.000	0.500	0.480	0.016	77.000	26.379	0.000
198055.000	0.500	0.480	0.016	77.000	26.379	0.000
198055.000	0.500	0.480	0.016	77.000	26.379	0.000
198055.000	0.500	0.480	0.016	77.000	26.379	0.000
198085.000	0.500	0.480	0.016	77.000	26.379	0.000
198085.000	0.500	0.480	0.016	77.000	26.379	0.000
198085.000	0.500	0.480	0.016	77.000	26.379	0.000
198115.000	0.500	0.480	0.016	77.000	26.379	0.000
198115.000	0.500	0.480	0.016	77.000	26.379	0.000
198115.000	0.500	0.480	0.016	77.000	26.379	0.000
198145.000	0.500	0.480	0.016	77.000	26.379	0.000
198145.000	0.500	0.480	0.016	77.000	26.379	0.000
198145.000	0.500	0.480	0.016	77.000	26.379	0.000
198175.000	0.500	0.480	0.016	77.000	26.379	0.000
198175.000	0.500	0.480	0.016	77.000	26.379	0.000
198175.000	0.500	0.480	0.016	77.000	26.379	0.000
198205.000	0.500	0.480	0.016	77.000	26.379	0.000
198205.000	0.500	0.480	0.016	77.000	26.379	0.000
198205.000	0.500	0.480	0.016	77.000	26.379	0.000
198235.000	0.500	0.480	0.016	77.000	26.379	0.000
198235.000	0.500	0.480	0.016	77.000	26.379	0.000
198235.000	0.500	0.480	0.016	77.000	26.379	0.000
198265.000	0.500	0.480	0.016	77.000	26.379	0.000
198265.000	0.500	0.480	0.016	77.000	26.379	0.000
198265.000	0.500	0.480	0.016	77.000	26.379	0.000
198295.000	0.500	0.480	0.016	77.000	26.379	0.000
198295.000	0.500	0.480	0.016	77.000	26.379	0.000
198295.000	0.500	0.480	0.016	77.000	26.379	0.000
198325.000	0.500	0.480	0.016	77.000	26.379	0.000
198325.000	0.500	0.480	0.016	77.000	26.379	0.000
198325.000	0.500	0.480	0.016	77.000	26.379	0.000
198355.000	0.500	0.480	0.016	77.000	26.379	0.000
198355.000	0.500	0.480	0.016	77.000	26.379	0.000
198355.000	0.500	0.480	0.016	77.000	26.379	0.000
198385.000	0.500	0.480	0.016	77.000	26.379	0.000
198385.000	0.500	0.480	0.016	77.000	26.379	0.000
198385.000	0.500	0.480	0.016	77.000	26.379	0.000
198415.000	0.500	0.480	0.016	77.000	26.379	0.000
198415.000	0.500	0.480	0.016	77.000	26.379	0.000
198415.000	0.500	0.480	0.016	77.000	26.379	0.000
198445.000	0.500	0.480	0.016	77.000	26.379	0.000
198445.000	0.500	0.480	0.016	77.000	26.379	0.000
198445.000	0.500	0.480	0.016	77.000	26.379	0.000
198475.000	0.500	0.480	0.016	77.000	26.379	0.000
198475.000	0.500	0.480	0.016	77.000	26.379	0.000
198475.000	0.500	0.480	0.016	77.000	26.379	0.000
198505.000	0.500	0.480	0.016	77.000	26.379	0.000
198505.000	0.500	0.480	0.016	77.000	26.379	0.000
198505.000	0.500	0.480	0.016	77.000	26.379	0.000
198535.000	0.500	0.480	0.016	77.000	26.379	0.000
198535.000	0.500	0.480	0.016	77.000	26.379	0.000
198535.000	0.500	0.480	0.016	77.000	26.379	0.000
198565.000	0.500	0.480	0.016	77.000	26.379	0.000
198565.000	0.500	0.480	0.016	77.000	26.379	0.000
198565.000	0.500	0.480	0.016	77.000	26.379	0.000
198595.000	0.500	0.480	0.016	77.000	26.379	0.000
198595.000	0.500	0.480	0.016	77.000	26.379	0.000
198595.000	0.500	0.480	0.016	77.000	26.379	0.000
198625.000	0.500	0.480	0.016	77.000	26.379	0.000
198625.000	0.500	0.480	0.016	77.000	26.379	0.000
198625.000	0.500	0.480	0.016	77.000	26.379	0.000
198655.000	0.500	0.480	0.016	77.000	26.379	0.000
198655.000	0.500	0.480	0.016	77.000	26.379	0.000
198655.000	0.500	0.480	0.016	77.000	26.379	0.000
198685.000	0.500	0.480	0.016	77.000	26.379	0.000
198685.000	0.500	0.480	0.016	77.000	26.379	0.000
198685.000	0.500	0.480	0.016	77.000	26.379	0.000
198715.000	0.500	0.480	0.016	77.000	26.379	0.000
198715.000	0.500	0.480	0.016	77.000	26.379	0.000
198715.000	0.500	0.480	0.016	77.000	26.379	0.000
198745.000	0.500	0.480	0.016	77.000	26.379	0.000
198745.000	0.500	0.480	0.016	77.000	26.379	0.000
198745.000	0.500	0.480	0.016	77.000	26.379	0.000
198775.000	0.500	0.480	0.016	77.000	26.379	0.000
198775.000	0.500	0.480	0.016	77.000	26.379	0.000
198775.000	0.500	0.480	0.016	77.000	26.379	0.000
198805.000	0.500	0.480	0.016	77.000	26.379	0.000
198805.000	0.500	0.480	0.016	77.000	26.379	0.000
198805.000	0.500	0.480	0.016	77.000	26.379	0.000
198835.000	0.500	0.480	0.016	77.000	26.379	0.000
198835.000	0.500	0.480	0.016	77.000	26.379	0.000
198835.000	0.500	0.480	0.016	77.000	26.379	0.000
198865.000	0.500	0.480	0.016	77.000	26.379	0.000
198865.000	0.500	0.480	0.016	77.000	26.379	0.000
198865.000	0.500	0.480	0.016	77.000	26.379	0.000
198895.000	0.500	0.480	0.016	77.000	26.379	0.000
198895.000	0.500	0.480	0.016	77.000	26.379	0.000
198895.000	0.500	0.480	0.016	77.000	26.379	0.000
198925.000	0.500	0.480	0.016	77.000	26.379	0.000
198925.000	0.500	0.480	0.016	77.000	26.379	0.000
198925.000	0.500	0.480	0.016	77.000	26.379	0.000
198955.000	0.500	0.480	0.016	77.000	26.379	0.000
198955.000	0.500	0.480	0.016	77.000	26.379	0.000
198955.000	0.500	0.480	0.016	77.000	26.379	0.000
198985.000	0.500	0.480	0.016	77.000	26.379	0.000
198985.000	0.500	0.480	0.016	77.000	26.379	0.000
198985.000	0.500	0.480	0.016	77.000	26.379	0.000
199015.000	0.500	0.480	0.016	77.000	26.379	0.000
199015.000	0.500	0.480	0.016	77.000	26.379	0.000
199015.000	0.500	0.480	0.016	77.000	26.379	0.000
199045.000	0.500	0.480	0.016	77.000	26.379	0.000
199045.000	0.500	0.480	0.016	77.000	26.379	0.000
199045.000	0.500	0.480	0.016	77.000	26.379	0.000
199075.000	0.500	0.480	0.016	77.000	26.379	0.000
199075.000	0.500	0.480	0.016	77.000	26.379	0.000
199075.000	0.500	0.480	0.016	77.000	26.379	0.000
199105.000	0.500	0.480	0.016	77.000	26.379	0.000
199105.000	0.500	0.480	0.016	77.000	26.379	0.000
199105.000	0.500	0.480	0.016	77.000	26.379	0.000
199135.000	0.500	0.480	0.016	77.000	26.379	0.000
199135.000	0.500	0.480	0.016	77.000	26.379	0.000
199135.000	0.500	0.480	0.016	77.000	26.379	0.000
199165.000	0.500	0.480	0.016	77.000	26.379	0.000
199165.000	0.500	0.480	0.016	77.000	26.379	0.000
199165.000	0.500	0.480	0.016	77.000	26.379	0.000
199195.000	0.500	0.480	0.016	77.000	26.379	0.000
199195.000	0.500	0.480	0.016	77.000	26.379	0.000
199195.000	0.500	0.480	0.016	77.000	26.379	0.000
199225.000	0.500	0.480	0.016	77.000	26.379	0.000
199225.000	0.500	0.480	0.016	77.000	26.379	0.000
199225.000	0.500	0.480	0.016	77.000	26.379	0.000
199255.000	0.500	0.480	0.016	77.000	26.379	0.000
199255.000	0.500	0.480	0.016	77.000	26.379	0.000
199255.000	0.500	0.480	0.016	77.000	26.379	0.000
199285.000	0.500	0.480	0.016	77.000	26.379	0.000
199285.000	0.500	0.480	0.016	77.000	26.379	0.000
199285.000	0.500	0.480	0.016	77.000	26.379	0.000
199315.000	0.500	0.480	0.016	77.000	26.379	0.000
199315.000	0.500	0.480	0.016	77.000	26.379	0.000
199315.000	0.500	0.480	0.016	77.000	26.379	0.000
199345.000	0.500	0.480	0.016	77.000	26.379	0.000
199345.000	0.500	0.480	0.016	77.000	26.379	0.000
199345.000	0.500	0.480	0.016	77.000	26.379	0.000
199375.000	0.500	0.480	0.016	77.000	26.379	0.000
199375.000	0.500	0.480	0.016	77.000	26.379	0.000
199375.000	0.500	0.480	0.016	77.000	26.379	0.000
199405.000	0.500	0.480	0.016	77.000	26.379	0.000
199405.000	0.500	0.480	0.016	77.000	26.379	0.000
199405.000	0.500	0.480	0.016	77.000	26.379	0.000
199435.000	0.500	0.480	0.016	77.000	26.379	0.000
199435.000	0.500	0.480	0.016	77.000	26.379	0.000
199435.000	0.500	0.480	0.016	77.000	26.379	0.000
199465.000	0.500	0.480	0.016	77.000	26.379	0.000
199465.000	0.500	0.480	0.016	77.000	26.379	0.000
199465.000	0.500	0.480	0.016	77.000	26.379	0.000
199495.000	0.500	0.480	0.016	77.000	26.379	0.000
199495.000	0.500	0.480	0.016	77.000	26.379	0.000
199495.000	0.500	0.480	0.016	77.000	26.379	0.000
199525.000	0.500	0.480	0.016	77.000	26.379	0.000
199525.000	0.500	0.480	0.016	77.000	26.379	0.000
199525.000	0.500	0.480	0.016	77.000	26.379	0.000
199555.000	0.500	0.480	0.016	77.000	26.379	0.000
199555.000	0.500	0.480	0.016	77.000	26.379	0.000
199555.000	0.500	0.480	0.016	77.000	26.379	0.000
199585.000	0.500	0.480	0.016	77.000	26.379	0.000
199585.000	0.500	0.480	0.016	77.000	26.379	0.000
199585.000	0.500	0.480	0.016	77.000	26.379	0.000
199615.000	0.500	0.480	0.016	77.000	26.379	0.000
199615.000	0.500	0.480	0.016	77.000	26.379	0.000
199615.000	0.500	0.480	0.016	77.000	26.379	0.000
199645.000	0.500	0.480	0.016	77.000	26.379	0.000
199645.000	0.500	0.480	0.016	77.000	26.379	0.000
199645.000	0.500	0.480	0.016	77.000	26.379	0.000
199675.000	0.500	0.480	0.016	77.000	26.379	0.000
199675.000	0.500	0.480	0.016	77.000	26.379	0.000
199675.000	0.500	0.480	0.016	77.000	26.379	0.000
199705.000	0.500	0.480	0.016	77.000	26.379	0.000
199705.000	0.500	0.480	0.016	77.000	26.379	0.000
199705.000	0.500	0.480	0.016	77.000	26.379	0.000
199735.000	0.500	0.480	0.016	77.000	26.379	0.000
199735.000	0.500	0.480	0.016	77.000	26.379	0.000
199735.000	0.500	0.480	0.016	77.000	26.379	0.000
199765.000	0.500	0.480	0.016	77.000	26.379	0.000
199765.000	0.500	0.480	0.016	77.000	26.379	0.000
199765.000	0.500	0.480	0.016	77.000	26.379	0.000
199795.000	0.500	0.480	0.016	77.000	26.379	0.000
199795.000	0.500	0.480	0.016	77.000	26.379	0.000
199795.000	0.500	0.480	0.016	77.000	26.379	0.000
199825.000	0.500	0.480	0.016	77.000	26.379	0.000
199825.000	0.500	0.480	0.016	77.000	26.379	0.000
199825.000	0.500	0.480	0.016	77.000	26.379	0.000
199855.000	0.000	0.480	-0.828	77.000	26.379	0.000
199855.000	0.000	0.480	-0.828	77.000	26.379	0.000
199855.000	0.000	0.480	-0.828	77.000	26.379	0.000
199885.000	0.000	0.480	-0.703	77.000	26.379	0.000
199885.000	0.000	0.480	-0.703	77.000	26.379	0.000
199885.000	0.000	0.480	-0.703	77.000	26.379	0.000
199915.000	0.000	0.470	-0.594	77.000	26.379	0.000
199915.000	0.000	0.470	-0.594	77.000	26.379	0.000
199915.000	0.000	0.470	-0.594	77.000	26.379	0.000
199945.000	0.000	0.450	-0.484	77.000	26.379	0.000
199945.000	0.000	0.450	-0.484	77.000	26.379	0.000
199945.000	0.000	0.450	-0.484	77.000	26.379	0.000
199975.000	0.000	0.430	-0.391	77.000	26.379	0.000
199975.000	0.000	0.430	-0.391	77.000	26.379	0.000
199975.000	0.000	0.430	-0.391	77.000	26.379	0.000
200005.000	0.000	0.410	-0.312	77.000	26.379	0.000
200005.000	0.000	0.410	-0.312	77.000	26.379	0.000
200005.000	0.000	0.410	-0.312	77.000	26.379	0.000
200035.000	0.000	0.390	-0.250	77.000	26.379	0.000
200035.000	0.000	0.390	-0.250	77.000	26.379	0.000
200035.000	0.000	0.390	-0.250	77.000	26.379	0.000
200065.000	0.000	0.370	-0.187	77.000	26.379	0.000
200065.000	0.000	0.370	-0.187	77.000	26.379	0.000
200065.000	0.000	0.370	-0.187	77.000	26.379	0.000
200095.000	0.000	0.340	-0.125	77.000	26.379	0.000
200095.000	0.000	0.340	-0.125	77.000	26.379	0.000
200095.000	0.000	0.340	-0.125	77.000	26.379	0.000
200125.000	0.000	0.320	-0.078	77.000	26.379	0.000
200125.000	0.000	0.320	-0.078	77.000	26.379	0.000
200125.000	0.000	0.320	-0.078	77.000	26.379	0.000
200155.000	0.000	0.290	-0.047	77.000	26.379	0.000
200155.000	0.000	0.290	-0.047	77.000	26.379	0.000
200155.000	0.000	0.290	-0.047	77.000	26.379	0.000
200185.000	0.000	0.270	0.000	77.000	26.379	0.000
200185.000	0.000	0.270	0.000	77.000	26.379	0.000
200185.000	0.000	0.270	0.000	77.000	26.379	0.000
200215.000	0.000	0.250	0.031	77.000	26.379	0.000
200215.000	0.000	0.250	0.031	77.000	26.379	0.000
200215.000	0.000	0.250	0.031	77.000	26.379	0.000
200245.000	0.000	0.220	0.062	77.000	26.379	0.000
200245.000	0.000	0.220	0.062	77.000	26.379	0.000
200245.000	0.000	0.220	0.062	77.000	26.379	0.000
200275.000	0.000	0.200	0.062	77.000	26.379	0.000
200275.000	0.000	0.200	0.062	77.000	26.379	0.000
200275.000	0.000	0.200	0.062	77.000	26.379	0.000
200305.000	0.000	0.180	0.078	77.000	26.379	0.000
200305.000	0.000	0.180	0.078	77.000	26.379	0.000
200305.000	0.000	0.180	0.078	77.000	26.379	0.000
200335.000	0.000	0.160	0.094	77.000	26.379	0.000
200335.000	0.000	0.160	0.094	77.000	26.379	0.000
200335.000	0.000	0.160	0.094	77.000	26.379	0.000
200365.000	0.000	0.140	0.109	77.000	26.379	0.000
200365.000	0.000	0.140	0.109	77.000	26.379	0.000
200365.000	0.000	0.140	0.109	77.000	26.379	0.000
200395.000	0.000	0.120	0.109	77.000	26.379	0.000
200395.000	0.000	0.120	0.109	77.000	26.379	0.000
200395.000	0.000	0.120	0.109	77.000	26.379	0.000
200425.000	0.000	0.110	0.109	77.000	26.379	0.000
200425.000	0.000	0.110	0.109	77.000	26.379	0.000
200425.000	0.000	0.110	0.109	77.000	26.379	0.000
200455.000	0.000	0.090	0.109	77.000	26.379	0.000
200455.000	0.000	0.090	0.109	77.000	26.379	0.000
200455.000	0.000	0.090	0.109	77.000	26.379	0.000
200485.000	0.000	0.080	0.109	77.000	26.379	0.000
200485.000	0.000	0.080	0.109	77.000	26.379	0.000
200485.000	0.000	0.080	0.109	77.000	26.379	0.000
200515.000	0.000	0.070	0.094	77.000	26.379	0.000
200515.000	0.000	0.070	0.094	77.000	26.379	0.000
200515.000	0.000	0.070	0.094	77.000	26.379	0.000
200545.000	0.000	0.060	0.094	77.000	26.379	0.000
200545.000	0.000	0.060	0.094	77.000	26.379	0.000
200545.000	0.000	0.060	0.094	77.000	26.379	0.000
200575.000	0.000	0.050	0.078	77.000	26.379	0.000
200575.000	0.000	0.050	0.078	77.000	26.379	0.000
200575.000	0.000	0.050	0.078	77.000	26.379	0.000
200605.000	0.000	0.040	0.078	77.000	26.379	0.000
200605.000	0.000	0.040	0.078	77.000	26.379	0.000
200605.000	0.000	0.040	0.078	77.000	26.379	0.000
200635.000	0.000	0.030	0.078	77.000	26.379	0.000
200635.000	0.000	0.030	0.078	77.000	26.379	0.000
200635.000	0.000	0.030	0.078	77.000	26.379	0.000
200665.000	0.000	0.030	0.062	77.000	26.379	0.000
200665.000	0.000	0.030	0.062	77.000	26.379	0.000
200665.000	0.000	0.030	0.062	77.000	26.379	0.000
200695.000	0.000	0.020	0.047	77.000	26.379	0.000
200695.000	0.000	0.020	0.047	77.000	26.379	0.000
200695.000	0.000	0.020	0.047	77.000	26.379	0.000
200725.000	0.000	0.020	0.031	77.000	26.379	0.000
200725.000	0.000	0.020	0.031	77.000	26.379	0.000
200725.000	0.000	0.020	0.031	77.000	26.379	0.000
200755.000	0.000	0.010	0.016	77.000	26.379	0.000
200755.000	0.000	0.010	0.016	77.000	26.379	0.000
200755.000	0.000	0.010	0.016	77.000	26.379	0.000
200785.000	0.000	0.010	-0.031	77.000	26.379	0.000
200785.000	0.000	0.010	-0.031	77.000	26.379	0.000
200785.000	0.000	0.010	-0.031	77.000	26.379	0.000
200815.000	0.000	0.010	0.000	77.000	26.379	0.000
200815.000	0.000	0.010	0.000	77.000	26.379	0.000
200815.000	0.000	0.010	0.000	77.000	26.379	0.000
200845.000	0.000	0.010	-0.016	77.000	26.379	0.000
200845.000	0.000	0.010	-0.016	77.000	26.379	0.000
200845.000	0.000	0.010	-0.016	77.000	26.379	0.000
200875.000	0.000	0.010	-0.031	77.000	26.379	0.000
200875.000	0.000	0.010	-0.031	77.000	26.379	0.000
200875.000	0.000	0.010	-0.031	77.000	26.379	0.000
200905.000	0.000	0.010	-0.031	77.000	26.379	0.000
200905.000	0.000	0.010	-0.031	77.000	26.379	0.000
200905.000	0.000	0.010	-0.031	77.000	26.379	0.000
200935.000	0.000	0.010	-0.047	77.000	26.379	0.000
200935.000	0.000	0.010	-0.047	77.000	26.379	0.000
200935.000	0.000	0.010	-0.047	77.000	26.379	0.000
200965.000	0.000	0.010	-0.047	77.000	26.379	0.000
200965.000	0.000	0.010	-0.047	77.000	26.379	0.000
200965.000	0.000	0.010	-0.047	77.000	26.379	0.000
200995.000	0.000	0.010	-0.062	77.000	26.379	0.000
200995.000	0.000	0.010	-0.062	77.000	26.379	0.000
200995.000	0.000	0.010	-0.062	77.000	26.379	0.000
201025.000	0.000	0.010	-0.062	77.000	26.379	0.000
201025.000	0.000	0.010	-0.062	77.000	26.379	0.000
201025.000	0.000	0.010	-0.062	77.000	26.379	0.000
201055.000	0.000	0.010	-0.078	77.000	26.379	0.000
201055.000	0.000	0.010	-0.078	77.000	26.379	0.000
201055.000	0.000	0.010	-0.078	77.000	26.379	0.000
201085.000	0.000	0.010	-0.078	77.000	26.379	0.000
201085.000	0.000	0.010	-0.078	77.000	26.379	0.000
201085.000	0.000	0.010	-0.078	77.000	26.379	0.000
201115.000	0.000	0.020	-0.078	77.000	26.379	0.000
201115.000	0.000	0.020	-0.078	77.000	26.379	0.000
201115.000	0.000	0.020	-0.078	77.000	26.379	0.000
201145.000	0.000	0.020	-0.078	77.000	26.379	0.000
201145.000	0.000	0.020	-0.078	77.000	26.379	0.000
201145.000	0.000	0.020	-0.078	77.000	26.379	0.000
201175.000	0.000	0.020	-0.078	77.000	26.379	0.000
201175.000	0.000	0.020	-0.078	77.000	26.379	0.000
201175.000	0.000	0.020	-0.078	77.000	26.379	0.000
201205.000	0.000	0.020	-0.078	77.000	26.379	0.000
201205.000	0.000	0.020	-0.078	77.000	26.379	0.000
201205.000	0.000	0.020	-0.078	77.000	26.379	0.000
201235.000	0.000	0.020	-0.078	77.000	26.379	0.000
201235.000	0.000	0.020	-0.078	77.000	26.379	0.000
201235.000	0.000	0.020	-0.078	77.000	26.379	0.000
201265.000	0.000	0.020	-0.062	77.000	26.379	0.000
201265.000	0.000	0.020	-0.062	77.000	26.379	0.000
201265.000	0.000	0.020	-0.062	77.000	26.379	0.000
201295.000	0.000	0.020	-0.062	77.000	26.379	0.000
201295.000	0.000	0.020	-0.062	77.000	26.379	0.000
201295.000	0.000	0.020	-0.062	77.000	26.379	0.000
201325.000	0.000	0.020	-0.062	77.000	26.379	0.000
201325.000	0.000	0.020	-0.062	77.000	26.379	0.000
201325.000	0.000	0.020	-0.062	77.000	26.379	0.000
201355.000	0.000	0.020	-0.062	77.000	26.379	0.000
201355.000	0.000	0.020	-0.062	77.000	26.379	0.000
201355.000	0.000	0.020	-0.062	77.000	26.379	0.000
201385.000	0.000	0.020	-0.062	77.000	26.379	0.000
201385.000	0.000	0.020	-0.062	77.000	26.379	0.000
201385.000	0.000	0.020	-0.062	77.000	26.379	0.000
201415.000	0.000	0.020	-0.062	77.000	26.379	0.000
201415.000	0.000	0.020	-0.062	77.000	26.379	0.000
201415.000	0.000	0.020	-0.062	77.000	26.379	0.000
201445.000	0.000	0.020	-0.047	77.000	26.379	0.000
201445.000	0.000	0.020	-0.047	77.000	26.379	0.000
201445.000	0.000	0.020	-0.047	77.000	26.379	0.000
201475.000	0.000	0.020	-0.047	77.000	26.379	0.000
201475.000	0.000	0.020	-0.047	77.000	26.379	0.000
201475.000	0.000	0.020	-0.047	77.000	26.379	0.000
201505.000	0.000	0.020	-0.047	77.000	26.379	0.000
201505.000	0.000	0.020	-0.047	77.000	26.379	0.000
201505.000	0.000	0.020	-0.047	77.000	26.379	0.000
201535.000	0.000	0.020	-0.047	77.000	26.379	0.000
201535.000	0.000	0.020	-0.047	77.000	26.379	0.000
201535.000	0.000	0.020	-0.047	77.000	26.379	0.000
201565.000	0.000	0.020	-0.047	77.000	26.379	0.000
201565.000	0.000	0.020	-0.047	77.000	26.379	0.000
201565.000	0.000	0.020	-0.047	77.000	26.379	0.000
201595.000	0.000	0.020	-0.047	77.000	26.379	0.000
201595.000	0.000	0.020	-0.047	77.000	26.379	0.000
201595.000	0.000	0.020	-0.047	77.000	26.379	0.000
201625.000	0.000	0.020	-0.047	77.000	26.379	0.000
201625.000	0.000	0.020	-0.047	77.000	26.379	0.000
201625.000	0.000	0.020	-0.047	77.000	26.379	0.000
201655.000	0.000	0.020	-0.047	77.000	26.379	0.000
201655.000	0.000	0.020	-0.047	77.000	26.379	0.000
201655.000	0.000	0.020	-0.047	77.000	26.379	0.000
201685.000	0.000	0.020	-0.047	77.000	26.379	0.000
201685.000	0.000	0.020	-0.047	77.000	26.379	0.000
201685.000	0.000	0.020	-0.047	77.000	26.379	0.000
201715.000	0.000	0.020	-0.062	77.000	26.379	0.000
201715.000	0.000	0.020	-0.062	77.000	26.379	0.000
201715.000	0.000	0.020	-0.062	77.000	26.379	0.000
201745.000	0.000	0.020	-0.062	77.000	26.379	0.000
201745.000	0.000	0.020	-0.062	77.000	26.379	0.000
201745.000	0.000	0.020	-0.062	77.000	26.379	0.000
201775.000	0.000	0.020	-0.062	77.000	26.379	0.000
201775.000	0.000	0.020	-0.062	77.000	26.379	0.000
201775.000	0.000	0.020	-0.062	77.000	26.379	0.000
201805.000	0.000	0.020	-0.062	77.000	26.379	0.000
201805.000	0.000	0.020	-0.062	77.000	26.379	0.000
201805.000	0.000	0.020	-0.062	77.000	26.379	0.000
201835.000	0.000	0.020	-0.047	77.000	26.379	0.000
201835.000	0.000	0.020	-0.047	77.000	26.379	0.000
201835.000	0.000	0.020	-0.047	77.000	26.379	0.000
201865.000	0.000	0.020	-0.047	77.000	26.379	0.000
201865.000	0.000	0.020	-0.047	77.000	26.379	0.000
201865.000	0.000	0.020	-0.047	77.000	26.379	0.000
201895.000	0.000	0.020	-0.047	77.000	26.379	0.000
201895.000	0.000	0.020	-0.047	77.000	26.379	0.000
201895.000	0.000	0.020	-0.047	77.000	26.379	0.000
201925.000	0.000	0.020	-0.062	77.000	26.379	0.000
201925.000	0.000	0.020	-0.062	77.000	26.379	0.000
201925.000	0.000	0.020	-0.062	77.000	26.379	0.000
201955.000	0.000	0.020	-0.047	77.000	26.379	0.000
201955.000	0.000	0.020	-0.047	77.000	26.379	0.000
201955.000	0.000	0.020	-0.047	77.000	26.379	0.000
201985.000	0.000	0.020	-0.062	77.000	26.379	0.000
201985.000	0.000	0.020	-0.062	77.000	26.379	0.000
201985.000	0.000	0.020	-0.062	77.000	26.379	0.000
202015.000	0.000	0.020	-0.062	77.000	26.379	0.000
202015.000	0.000	0.020	-0.062	77.000	26.379	0.000
202015.000	0.000	0.020	-0.062	77.000	26.379	0.000
202045.000	0.000	0.020	-0.062	77.000	26.379	0.000
202045.000	0.000	0.020	-0.062	77.000	26.379	0.000
202045.000	0.000	0.020	-0.062	77.000	26.379	0.000
202075.000	0.000	0.020	-0.062	77.000	26.379	0.000
202075.000	0.000	0.020	-0.062	77.000	26.379	0.000
202075.000	0.000	0.020	-0.062	77.000	26.379	0.000
202105.000	0.000	0.020	-0.062	77.000	26.379	0.000
202105.000	0.000	0.020	-0.062	77.000	26.379	0.000
202105.000	0.000	0.020	-0.062	77.000	26.379	0.000
202135.000	0.000	0.020	-0.062	77.000	26.379	0.000
202135.000	0.000	0.020	-0.062	77.000	26.379	0.000
202135.000	0.000	0.020	-0.062	77.000	26.379	0.000
202165.000	0.000	0.020	-0.047	77.000	26.379	0.000
202165.000	0.000	0.020	-0.047	77.000	26.379	0.000
202165.000	0.000	0.020	-0.047	77.000	26.379	0.000
202195.000	0.000	0.020	-0.047	77.000	26.379	0.000
202195.000	0.000	0.020	-0.047	77.000	26.379	0.000
202195.000	0.000	0.020	-0.047	77.000	26.379	0.000
202225.000	0.000	0.020	-0.047	77.000	26.379	0.000
202225.000	0.000	0.020	-0.047	77.000	26.379	0.000
202225.000	0.000	0.020	-0.047	77.000	26.379	0.000
202255.000	0.000	0.020	-0.062	77.000	26.379	0.000
202255.000	0.000	0.020	-0.062	77.000	26.379	0.000
202255.000	0.000	0.020	-0.062	77.000	26.379	0.000
202285.000	0.000	0.020	-0.062	77.000	26.379	0.000
202285.000	0.000	0.020	-0.062	77.000	26.379	0.000
202285.000	0.000	0.020	-0.062	77.000	26.379	0.000
202315.000	0.000	0.020	-0.062	77.000	26.379	0.000
202315.000	0.000	0.020	-0.062	77.000	26.379	0.000
202315.000	0.000	0.020	-0.062	77.000	26.379	0.000
202345.000	0.000	0.020	-0.062	77.000	26.379	0.000
202345.000	0.000	0.020	-0.062	77.000	26.379	0.000
202345.000	0.000	0.020	-0.062	77.000	26.379	0.000
202375.000	0.000	0.020	-0.062	77.000	26.379	0.000
202375.000	0.000	0.020	-0.062	77.000	26.379	0.000
202375.000	0.000	0.020	-0.062	77.000	26.379	0.000
202405.000	0.000	0.020	-0.062	77.000	26.379	0.000
